partno,trialcode,latency,response
412120.7270833333333337,real33,8479,3
412120.7270833333333337,real35,7845,10
412120.7270833333333337,real79,4594,5
412120.7270833333333337,real18,3178,10
412120.7270833333333337,real24,6222,10
412120.7270833333333337,real54,3065,10
412120.7270833333333337,real48,2491,8
412120.7270833333333337,real6,6210,4
412120.7270833333333337,real7,4070,6
412120.7270833333333337,real68,2886,9
412120.7270833333333337,real38,3821,4
412120.7270833333333337,real58,2330,10
412120.7270833333333337,real86,3848,4
412120.7270833333333337,real17,2194,4
412120.7270833333333337,real71,2037,10
412120.7270833333333337,real66,1696,10
412120.7270833333333337,real19,4907,7
412120.7270833333333337,real67,2061,10
412120.7270833333333337,real32,1253,10
412120.7270833333333337,real43,3640,8
412120.7270833333333337,real93,2845,10
412120.7270833333333337,real15,2652,10
412120.7270833333333337,real16,1907,8
412120.7270833333333337,real61,1739,8
412120.7270833333333337,real44,4196,9
412120.7270833333333337,real88,3772,8
412120.7270833333333337,real69,2294,6
412120.7270833333333337,real34,1636,7
412120.7270833333333337,real13,7792,5
412120.7270833333333337,real56,1573,5
412120.7270833333333337,real80,921,6
412120.7270833333333337,real36,4337,3
412120.7270833333333337,real62,2350,9
412120.7270833333333337,real75,1631,9
412120.7270833333333337,real39,1078,9
412120.7270833333333337,real26,1774,8
412120.7270833333333337,real37,4131,5
412120.7270833333333337,real90,2222,8
412120.7270833333333337,real72,1334,7
412120.7270833333333337,real30,2610,4
412120.7270833333333337,real77,1756,10
412120.7270833333333337,real59,3566,7
412120.7270833333333337,real73,984,7
412120.7270833333333337,real89,1965,9
412120.7270833333333337,real82,1854,9
412120.7270833333333337,real94,1123,8
412120.7270833333333337,real64,3115,10
412120.7270833333333337,real20,2680,8
412120.7270833333333337,real5,9560,10
412120.7270833333333337,real40,1273,9
412120.7270833333333337,real22,2919,6
412120.7270833333333337,real25,4780,7
412120.7270833333333337,real9,1633,7
412120.7270833333333337,real53,2624,5
412120.7270833333333337,real60,2210,7
412120.7270833333333337,real92,1495,10
412120.7270833333333337,real91,3298,7
412120.7270833333333337,real8,1414,7
412120.7270833333333337,real4,1409,6
412120.7270833333333337,real49,1901,10
412120.7270833333333337,real31,6535,1
412120.7270833333333337,real55,2083,8
412120.7270833333333337,real14,4341,10
412120.7270833333333337,real42,4531,2
412120.7270833333333337,real50,2477,10
412120.7270833333333337,real12,1161,8
412120.7270833333333337,real11,3289,10
412120.7270833333333337,real65,1114,10
412120.7270833333333337,real95,1266,10
412120.7270833333333337,real52,1088,10
412120.7270833333333337,real78,1168,10
412120.7270833333333337,real81,960,10
412120.7270833333333337,real76,2472,6
412120.7270833333333337,real45,1849,8
412120.7270833333333337,real29,1262,8
412120.7270833333333337,real83,2505,10
412120.7270833333333337,real51,1701,10
412120.7270833333333337,real74,1620,10
412120.7270833333333337,real1,2033,9
412120.7270833333333337,real63,3425,8
412120.7270833333333337,real41,1334,9
412120.7270833333333337,real57,1657,10
412120.7270833333333337,real70,4413,2
412120.7270833333333337,real10,2849,2
412120.7270833333333337,real28,1820,10
412120.7270833333333337,real27,3593,6
412120.7270833333333337,real84,3215,8
412120.7270833333333337,real87,1544,8
412120.7270833333333337,real2,4429,4
412120.7270833333333337,real3,3045,9
412120.7270833333333337,real21,1469,9
412120.7270833333333337,real23,2732,10
412120.7270833333333337,real96,3470,3
412120.7270833333333337,real46,1157,10
412120.7270833333333337,real47,2389,10
412120.7270833333333337,real85,4190,9
904120.60138888888888979,real33,5678,8
904120.60138888888888979,real35,21064,10
904120.60138888888888979,real79,4347,6
904120.60138888888888979,real18,6220,8
904120.60138888888888979,real24,10122,7
904120.60138888888888979,real54,7406,9
904120.60138888888888979,real48,7389,10
904120.60138888888888979,real6,6917,8
904120.60138888888888979,real7,8016,8
904120.60138888888888979,real68,7615,10
904120.60138888888888979,real38,8007,8
904120.60138888888888979,real58,7039,10
904120.60138888888888979,real86,8071,7
904120.60138888888888979,real17,7468,7
904120.60138888888888979,real71,5537,9
904120.60138888888888979,real66,4955,7
904120.60138888888888979,real19,5819,10
904120.60138888888888979,real67,7818,8
904120.60138888888888979,real32,7337,9
904120.60138888888888979,real43,4579,10
904120.60138888888888979,real93,7487,8
904120.60138888888888979,real15,16107,4
904120.60138888888888979,real16,9217,6
904120.60138888888888979,real61,3649,8
904120.60138888888888979,real44,9355,8
904120.60138888888888979,real88,8398,6
904120.60138888888888979,real69,10709,8
904120.60138888888888979,real34,5690,10
904120.60138888888888979,real13,9104,7
904120.60138888888888979,real56,8861,7
904120.60138888888888979,real80,5187,8
904120.60138888888888979,real36,6378,5
904120.60138888888888979,real62,7797,10
904120.60138888888888979,real75,6005,9
904120.60138888888888979,real39,7916,10
904120.60138888888888979,real26,9095,7
904120.60138888888888979,real37,6964,9
904120.60138888888888979,real90,9580,7
904120.60138888888888979,real72,3934,7
904120.60138888888888979,real30,4702,9
904120.60138888888888979,real77,6171,8
904120.60138888888888979,real59,8019,10
904120.60138888888888979,real73,5483,8
904120.60138888888888979,real89,8661,6
904120.60138888888888979,real82,7218,7
904120.60138888888888979,real94,8473,10
904120.60138888888888979,real64,7990,10
904120.60138888888888979,real20,10855,7
904120.60138888888888979,real5,6089,8
904120.60138888888888979,real40,11053,6
904120.60138888888888979,real22,8868,9
904120.60138888888888979,real25,8202,9
904120.60138888888888979,real9,5461,6
904120.60138888888888979,real53,4066,6
904120.60138888888888979,real60,11950,6
904120.60138888888888979,real92,4457,6
904120.60138888888888979,real91,5379,8
904120.60138888888888979,real8,4010,8
904120.60138888888888979,real4,2144,8
904120.60138888888888979,real49,4072,9
904120.60138888888888979,real31,5924,6
904120.60138888888888979,real55,3582,7
904120.60138888888888979,real14,1981,9
904120.60138888888888979,real42,6868,7
904120.60138888888888979,real50,5542,8
904120.60138888888888979,real12,5172,7
904120.60138888888888979,real11,2914,8
904120.60138888888888979,real65,2275,9
904120.60138888888888979,real95,2870,9
904120.60138888888888979,real52,5481,10
904120.60138888888888979,real78,7205,7
904120.60138888888888979,real81,2566,9
904120.60138888888888979,real76,4801,8
904120.60138888888888979,real45,3751,7
904120.60138888888888979,real29,4157,8
904120.60138888888888979,real83,3541,8
904120.60138888888888979,real51,5529,10
904120.60138888888888979,real74,3922,8
904120.60138888888888979,real1,3473,7
904120.60138888888888979,real63,3605,9
904120.60138888888888979,real41,5557,8
904120.60138888888888979,real57,2990,9
904120.60138888888888979,real70,4598,7
904120.60138888888888979,real10,4708,7
904120.60138888888888979,real28,3288,8
904120.60138888888888979,real27,2315,9
904120.60138888888888979,real84,4332,9
904120.60138888888888979,real87,2221,8
904120.60138888888888979,real2,3285,8
904120.60138888888888979,real3,4056,8
904120.60138888888888979,real21,2276,9
904120.60138888888888979,real23,3839,9
904120.60138888888888979,real96,6470,8
904120.60138888888888979,real46,1867,8
904120.60138888888888979,real47,3446,9
904120.60138888888888979,real85,12682,6
828120.48333333333333314234,real33,1129,6
828120.48333333333333314234,real35,488,9
828120.48333333333333314234,real79,746,6
828120.48333333333333314234,real18,890,6
828120.48333333333333314234,real24,1121,5
828120.48333333333333314234,real54,7578,6
828120.48333333333333314234,real48,2701,0
828120.48541666666666745465465,real33,422,0
904120.3784722222222228,real33,21190,5
904120.3784722222222228,real35,14106,7
904120.3784722222222228,real79,7639,4
904120.3784722222222228,real18,9886,8
904120.3784722222222228,real24,18043,9
904120.3784722222222228,real54,5804,9
904120.3784722222222228,real48,5539,9
904120.3784722222222228,real6,9477,10
904120.3784722222222228,real7,11612,9
904120.3784722222222228,real68,5364,8
904120.3784722222222228,real38,9732,7
904120.3784722222222228,real58,12695,9
904120.3784722222222228,real86,15112,5
904120.3784722222222228,real17,7198,7
904120.3784722222222228,real71,22653,9
904120.3784722222222228,real66,4503,8
904120.3784722222222228,real19,9634,10
904120.3784722222222228,real67,5001,9
904120.3784722222222228,real32,5863,3
904120.3784722222222228,real43,4603,2
904120.3784722222222228,real93,6013,6
904120.3784722222222228,real15,7331,6
904120.3784722222222228,real16,6293,7
904120.3784722222222228,real61,6864,10
904120.3784722222222228,real44,14087,7
904120.3784722222222228,real88,70108,5
904120.3784722222222228,real69,4476,6
904120.3784722222222228,real34,4919,9
904120.3784722222222228,real13,6678,8
904120.3784722222222228,real56,9986,7
904120.3784722222222228,real80,5843,7
904120.3784722222222228,real36,5976,5
904120.3784722222222228,real62,8947,9
904120.3784722222222228,real75,7525,9
904120.3784722222222228,real39,3439,9
904120.3784722222222228,real26,4556,9
904120.3784722222222228,real37,5380,9
904120.3784722222222228,real90,5155,8
904120.3784722222222228,real72,4404,6
904120.3784722222222228,real30,3059,9
904120.3784722222222228,real77,5954,6
904120.3784722222222228,real59,6947,8
904120.3784722222222228,real73,4437,8
904120.3784722222222228,real89,3754,9
904120.3784722222222228,real82,2782,9
904120.3784722222222228,real94,10845,10
904120.3784722222222228,real64,5716,10
904120.3784722222222228,real20,6958,5
904120.3784722222222228,real5,7123,9
904120.3784722222222228,real40,2686,9
904120.3784722222222228,real22,2920,9
904120.3784722222222228,real25,8282,9
904120.3784722222222228,real9,4156,9
904120.3784722222222228,real53,6548,3
904120.3784722222222228,real60,6597,5
904120.3784722222222228,real92,8388,10
904120.3784722222222228,real91,4479,4
904120.3784722222222228,real8,4547,5
904120.3784722222222228,real4,5011,10
904120.3784722222222228,real49,13489,9
904120.3784722222222228,real31,13160,5
904120.3784722222222228,real55,8475,10
904120.3784722222222228,real14,2959,7
904120.3784722222222228,real42,3975,6
904120.3784722222222228,real50,9888,10
904120.3784722222222228,real12,4933,10
904120.3784722222222228,real11,6222,10
904120.3784722222222228,real65,6149,9
904120.3784722222222228,real95,4875,10
904120.3784722222222228,real52,4759,10
904120.3784722222222228,real78,6199,4
904120.3784722222222228,real81,3910,10
904120.3784722222222228,real76,7532,10
904120.3784722222222228,real45,5590,5
904120.3784722222222228,real29,5733,10
904120.3784722222222228,real83,3791,10
904120.3784722222222228,real51,5165,8
904120.3784722222222228,real74,3462,9
904120.3784722222222228,real1,3977,7
904120.3784722222222228,real63,3904,9
904120.3784722222222228,real41,3697,10
904120.3784722222222228,real57,4539,6
904120.3784722222222228,real70,6452,9
904120.3784722222222228,real10,3409,4
904120.3784722222222228,real28,3356,7
904120.3784722222222228,real27,3229,9
904120.3784722222222228,real84,4129,6
904120.3784722222222228,real87,3842,10
904120.3784722222222228,real2,3538,5
904120.3784722222222228,real3,3899,6
904120.3784722222222228,real21,26716,9
904120.3784722222222228,real23,2262,9
904120.3784722222222228,real96,2763,9
904120.3784722222222228,real46,5522,10
904120.3784722222222228,real47,4148,10
904120.3784722222222228,real85,10293,10
904120.4402777777777788,real33,4466,8
904120.4402777777777788,real35,3142,8
904120.4402777777777788,real79,2207,4
904120.4402777777777788,real18,6092,8
904120.4402777777777788,real24,5422,9
904120.4402777777777788,real54,5085,9
904120.4402777777777788,real48,4072,5
904120.4402777777777788,real6,1676,10
904120.4402777777777788,real7,3347,9
904120.4402777777777788,real68,3611,7
904120.4402777777777788,real38,4048,10
904120.4402777777777788,real58,3325,10
904120.4402777777777788,real86,2377,7
904120.4402777777777788,real17,2471,10
904120.4402777777777788,real71,2899,9
904120.4402777777777788,real66,3052,8
904120.4402777777777788,real19,2865,10
904120.4402777777777788,real67,2204,10
904120.4402777777777788,real32,2298,8
904120.4402777777777788,real43,2523,9
904120.4402777777777788,real93,3405,10
904120.4402777777777788,real15,3564,7
904120.4402777777777788,real16,1467,8
904120.4402777777777788,real61,1950,10
904120.4402777777777788,real44,3656,5
904120.4402777777777788,real88,4028,7
904120.4402777777777788,real69,1722,10
904120.4402777777777788,real34,4122,9
904120.4402777777777788,real13,5563,8
904120.4402777777777788,real56,1251,10
904120.4402777777777788,real80,1919,9
904120.4402777777777788,real36,2312,3
904120.4402777777777788,real62,4525,8
904120.4402777777777788,real75,3143,10
904120.4402777777777788,real39,2511,10
904120.4402777777777788,real26,5040,5
904120.4402777777777788,real37,4179,9
904120.4402777777777788,real90,2730,9
904120.4402777777777788,real72,1891,7
904120.4402777777777788,real30,1485,10
904120.4402777777777788,real77,1703,10
904120.4402777777777788,real59,1841,8
904120.4402777777777788,real73,1373,10
904120.4402777777777788,real89,2052,10
904120.4402777777777788,real82,4295,7
904120.4402777777777788,real94,2066,8
904120.4402777777777788,real64,3013,9
904120.4402777777777788,real20,2506,10
904120.4402777777777788,real5,1586,10
904120.4402777777777788,real40,2248,10
904120.4402777777777788,real22,6452,8
904120.4402777777777788,real25,3697,9
904120.4402777777777788,real9,2044,10
904120.4402777777777788,real53,3160,9
904120.4402777777777788,real60,5191,7
904120.4402777777777788,real92,1294,10
904120.4402777777777788,real91,2652,8
904120.4402777777777788,real8,3264,7
904120.4402777777777788,real4,1228,10
904120.4402777777777788,real49,2080,10
904120.4402777777777788,real31,5684,8
904120.4402777777777788,real55,1424,10
904120.4402777777777788,real14,1757,10
904120.4402777777777788,real42,2988,9
904120.4402777777777788,real50,1161,10
904120.4402777777777788,real12,2383,10
904120.4402777777777788,real11,1590,10
904120.4402777777777788,real65,2052,8
904120.4402777777777788,real95,2512,9
904120.4402777777777788,real52,3305,6
904120.4402777777777788,real78,4187,7
904120.4402777777777788,real81,1274,10
904120.4402777777777788,real76,3982,9
904120.4402777777777788,real45,1782,8
904120.4402777777777788,real29,2076,10
904120.4402777777777788,real83,4631,9
904120.4402777777777788,real51,2543,9
904120.4402777777777788,real74,2847,10
904120.4402777777777788,real1,1563,7
904120.4402777777777788,real63,1354,7
904120.4402777777777788,real41,1428,10
904120.4402777777777788,real57,1760,7
904120.4402777777777788,real70,1783,8
904120.4402777777777788,real10,6990,1
904120.4402777777777788,real28,3835,9
904120.4402777777777788,real27,5320,9
904120.4402777777777788,real84,3010,9
904120.4402777777777788,real87,1543,10
904120.4402777777777788,real2,2782,2
904120.4402777777777788,real3,4148,7
904120.4402777777777788,real21,1165,10
904120.4402777777777788,real23,2172,10
904120.4402777777777788,real96,2666,7
904120.4402777777777788,real46,2061,10
904120.4402777777777788,real47,3056,8
904120.4402777777777788,real85,2676,9
904120.60138888888888964,real33,7796,3
904120.60138888888888964,real35,3435,6
904120.60138888888888964,real79,3728,3
904120.60138888888888964,real18,3617,8
904120.60138888888888964,real24,3447,8
904120.60138888888888964,real54,5467,4
904120.60138888888888964,real48,4119,6
904120.60138888888888964,real6,13122,10
904120.60138888888888964,real7,2696,4
904120.60138888888888964,real68,3874,5
905120.4194444444444448,real33,5405,7
905120.4194444444444448,real35,2492,7
905120.4194444444444448,real79,1855,6
905120.4194444444444448,real18,3218,3
905120.4194444444444448,real24,5590,8
905120.4194444444444448,real54,6774,5
905120.4194444444444448,real48,1966,6
905120.4194444444444448,real6,6189,10
905120.4194444444444448,real7,4227,9
905120.4194444444444448,real68,5472,4
905120.4194444444444448,real38,5580,8
905120.4194444444444448,real58,3068,9
905120.4194444444444448,real86,3723,4
905120.4194444444444448,real17,2924,4
905120.4194444444444448,real71,7766,7
905120.4194444444444448,real66,2679,7
905120.4194444444444448,real19,5165,8
905120.4194444444444448,real67,4173,6
905120.4194444444444448,real32,1797,4
905120.4194444444444448,real43,4562,6
905120.4194444444444448,real93,3954,8
905120.4194444444444448,real15,7666,10
905120.4194444444444448,real16,3663,4
905120.4194444444444448,real61,3491,10
905120.4194444444444448,real44,6318,5
905120.4194444444444448,real88,6137,4
905120.4194444444444448,real69,3154,8
905120.4194444444444448,real34,3058,10
905120.4194444444444448,real13,2928,9
905120.4194444444444448,real56,2305,9
905120.4194444444444448,real80,2163,8
905120.4194444444444448,real36,5386,3
905120.4194444444444448,real62,2652,9
905120.4194444444444448,real75,2792,8
905120.4194444444444448,real39,2263,5
905120.4194444444444448,real26,2842,3
905120.4194444444444448,real37,2960,6
905120.4194444444444448,real90,3183,8
905120.4194444444444448,real72,4014,5
905120.4194444444444448,real30,2236,9
905120.4194444444444448,real77,5736,7
905120.4194444444444448,real59,2754,5
905120.4194444444444448,real73,2042,9
905120.4194444444444448,real89,3374,10
905120.4194444444444448,real82,2323,5
905120.4194444444444448,real94,2884,8
905120.4194444444444448,real64,6831,9
905120.4194444444444448,real20,5141,6
905120.4194444444444448,real5,3605,9
905120.4194444444444448,real40,3347,8
905120.4194444444444448,real22,5099,7
905120.4194444444444448,real25,3142,5
905120.4194444444444448,real9,5910,8
905120.4194444444444448,real53,2592,5
905120.4194444444444448,real60,13286,4
905120.4194444444444448,real92,8612,9
905120.4194444444444448,real91,5483,8
905120.4194444444444448,real8,2487,7
905120.4194444444444448,real4,1777,9
905120.4194444444444448,real49,3384,9
905120.4194444444444448,real31,5051,4
905120.4194444444444448,real55,4496,9
905120.4194444444444448,real14,4618,8
905120.4194444444444448,real42,3112,3
905120.4194444444444448,real50,5319,9
905120.4194444444444448,real12,3689,9
905120.4194444444444448,real11,1796,9
905120.4194444444444448,real65,4266,5
905120.4194444444444448,real95,8236,8
905120.4194444444444448,real52,3275,7
905120.4194444444444448,real78,6158,5
905120.4194444444444448,real81,1535,9
905120.4194444444444448,real76,3900,6
905120.4194444444444448,real45,10103,7
905120.4194444444444448,real29,8483,7
905120.4194444444444448,real83,7911,6
905120.4194444444444448,real51,7026,6
905120.4194444444444448,real74,2272,8
905120.4194444444444448,real1,3147,7
905120.4194444444444448,real63,2699,8
905120.4194444444444448,real41,4629,9
905120.4194444444444448,real57,2850,5
905120.4194444444444448,real70,6750,6
905120.4194444444444448,real10,3392,2
905120.4194444444444448,real28,6130,6
905120.4194444444444448,real27,2772,5
905120.4194444444444448,real84,5259,7
905120.4194444444444448,real87,2215,9
905120.4194444444444448,real2,2646,8
905120.4194444444444448,real3,4226,4
905120.4194444444444448,real21,3559,8
905120.4194444444444448,real23,7120,8
905120.4194444444444448,real96,17341,5
905120.4194444444444448,real46,1753,9
905120.4194444444444448,real47,4289,7
905120.4194444444444448,real85,4332,4
905120.467361111111111987,real33,9067,8
905120.467361111111111987,real35,8784,7
905120.467361111111111987,real79,6473,7
905120.467361111111111987,real18,5253,9
905120.467361111111111987,real24,13126,9
905120.467361111111111987,real54,7490,7
905120.467361111111111987,real48,9902,6
905120.467361111111111987,real6,6002,9
905120.467361111111111987,real7,7420,9
905120.467361111111111987,real68,5539,6
905120.467361111111111987,real38,4612,8
905120.467361111111111987,real58,3986,8
905120.467361111111111987,real86,10856,5
905120.467361111111111987,real17,7334,8
905120.467361111111111987,real71,2985,8
905120.467361111111111987,real66,10183,5
905120.467361111111111987,real19,3700,9
905120.467361111111111987,real67,3254,9
905120.467361111111111987,real32,6946,7
905120.467361111111111987,real43,5867,7
905120.467361111111111987,real93,3360,8
905120.467361111111111987,real15,9368,4
905120.467361111111111987,real16,4889,8
905120.467361111111111987,real61,3061,9
905120.467361111111111987,real44,6359,7
905120.467361111111111987,real88,16352,9
905120.467361111111111987,real69,2372,8
905120.467361111111111987,real34,5171,8
905120.467361111111111987,real13,6419,7
905120.467361111111111987,real56,12162,7
905120.467361111111111987,real80,2908,9
905120.467361111111111987,real36,2638,4
905120.467361111111111987,real62,3882,8
905120.467361111111111987,real75,2053,8
905120.467361111111111987,real39,9113,7
905120.467361111111111987,real26,5228,8
905120.467361111111111987,real37,12204,9
905120.467361111111111987,real90,2350,8
905120.467361111111111987,real72,4534,4
905120.467361111111111987,real30,2487,8
905120.467361111111111987,real77,6453,9
905120.467361111111111987,real59,7442,6
905120.467361111111111987,real73,3431,9
905120.467361111111111987,real89,2428,8
905120.467361111111111987,real82,7770,5
905120.467361111111111987,real94,7715,8
905120.467361111111111987,real64,4238,9
905120.467361111111111987,real20,5323,8
905120.467361111111111987,real5,2976,9
905120.467361111111111987,real40,3879,9
905120.467361111111111987,real22,4266,3
905120.467361111111111987,real25,3581,4
905120.467361111111111987,real9,6296,8
905120.467361111111111987,real53,9939,5
905120.467361111111111987,real60,2302,5
905120.467361111111111987,real92,2432,8
905120.467361111111111987,real91,5568,8
905120.467361111111111987,real8,5369,8
905120.467361111111111987,real4,2065,9
905120.467361111111111987,real49,6364,5
905120.467361111111111987,real31,8077,7
905120.467361111111111987,real55,2321,9
905120.467361111111111987,real14,1650,9
905120.467361111111111987,real42,3582,7
905120.467361111111111987,real50,3778,9
905120.467361111111111987,real12,4697,8
905120.467361111111111987,real11,6091,8
905120.467361111111111987,real65,2727,7
905120.467361111111111987,real95,5396,8
905120.467361111111111987,real52,3995,7
905120.467361111111111987,real78,3794,8
905120.467361111111111987,real81,1752,9
905120.467361111111111987,real76,4141,8
905120.467361111111111987,real45,2485,8
905120.467361111111111987,real29,1656,9
905120.467361111111111987,real83,2460,9
905120.467361111111111987,real51,3229,7
905120.467361111111111987,real74,1434,9
905120.467361111111111987,real1,5126,8
905120.467361111111111987,real63,3015,7
905120.467361111111111987,real41,1834,9
905120.467361111111111987,real57,3679,7
905120.467361111111111987,real70,3970,8
905120.467361111111111987,real10,4954,5
905120.467361111111111987,real28,5067,8
905120.467361111111111987,real27,3535,8
905120.467361111111111987,real84,1496,9
905120.467361111111111987,real87,1570,9
905120.467361111111111987,real2,2861,7
905120.467361111111111987,real3,4088,7
905120.467361111111111987,real21,1603,9
905120.467361111111111987,real23,2849,8
905120.467361111111111987,real96,3399,7
905120.467361111111111987,real46,1245,9
905120.467361111111111987,real47,2311,8
905120.467361111111111987,real85,1489,9
906120.3819444444444446,real33,6030,8
906120.3819444444444446,real35,7508,8
906120.3819444444444446,real79,6519,5
906120.3819444444444446,real18,5194,8
906120.3819444444444446,real24,4188,9
906120.3819444444444446,real54,4875,7
906120.3819444444444446,real48,7143,5
906120.3819444444444446,real6,4088,10
906120.3819444444444446,real7,4209,9
906120.3819444444444446,real68,5223,9
906120.3819444444444446,real38,6093,10
906120.3819444444444446,real58,10368,7
906120.3819444444444446,real86,7804,6
906120.3819444444444446,real17,8243,10
906120.3819444444444446,real71,3953,8
906120.3819444444444446,real66,4289,9
906120.3819444444444446,real19,2394,10
906120.3819444444444446,real67,3400,10
906120.3819444444444446,real32,4510,7
906120.3819444444444446,real43,5688,4
906120.3819444444444446,real93,6529,7
906120.3819444444444446,real15,7875,6
906120.3819444444444446,real16,4543,8
906120.3819444444444446,real61,2528,10
906120.3819444444444446,real44,4911,6
906120.3819444444444446,real88,3705,7
906120.3819444444444446,real69,2411,10
906120.3819444444444446,real34,4440,9
906120.3819444444444446,real13,7893,5
906120.3819444444444446,real56,2288,10
906120.3819444444444446,real80,2827,10
906120.3819444444444446,real36,3215,5
906120.3819444444444446,real62,6036,5
906120.3819444444444446,real75,5138,9
906120.3819444444444446,real39,7427,7
906120.3819444444444446,real26,4697,4
906120.3819444444444446,real37,4220,7
906120.3819444444444446,real90,3202,9
906120.3819444444444446,real72,5288,6
906120.3819444444444446,real30,2755,9
906120.3819444444444446,real77,2516,10
906120.3819444444444446,real59,5013,6
906120.3819444444444446,real73,1947,10
906120.3819444444444446,real89,6355,7
906120.3819444444444446,real82,5121,6
906120.3819444444444446,real94,2732,7
906120.3819444444444446,real64,4124,7
906120.3819444444444446,real20,2758,9
906120.3819444444444446,real5,2816,9
906120.3819444444444446,real40,5813,6
906120.3819444444444446,real22,5931,6
906120.3819444444444446,real25,3077,7
906120.3819444444444446,real9,2061,8
906120.3819444444444446,real53,4136,4
906120.3819444444444446,real60,3793,6
906120.3819444444444446,real92,2975,9
906120.3819444444444446,real91,3991,7
906120.3819444444444446,real8,4190,3
906120.3819444444444446,real4,2757,10
906120.3819444444444446,real49,2717,9
906120.3819444444444446,real31,3005,4
906120.3819444444444446,real55,1931,10
906120.3819444444444446,real14,3179,8
906120.3819444444444446,real42,5322,5
906120.3819444444444446,real50,1819,10
906120.3819444444444446,real12,4544,9
906120.3819444444444446,real11,1625,9
906120.3819444444444446,real65,4333,5
906120.3819444444444446,real95,2800,6
906120.3819444444444446,real52,3686,3
906120.3819444444444446,real78,4201,5
906120.3819444444444446,real81,1839,10
906120.3819444444444446,real76,6558,7
906120.3819444444444446,real45,4183,6
906120.3819444444444446,real29,1750,9
906120.3819444444444446,real83,2694,8
906120.3819444444444446,real51,4153,6
906120.3819444444444446,real74,2033,9
906120.3819444444444446,real1,4494,5
906120.3819444444444446,real63,3832,3
906120.3819444444444446,real41,4001,9
906120.3819444444444446,real57,5071,8
906120.3819444444444446,real70,4843,8
906120.3819444444444446,real10,2720,3
906120.3819444444444446,real28,5138,5
906120.3819444444444446,real27,4275,3
906120.3819444444444446,real84,3223,6
906120.3819444444444446,real87,1724,10
906120.3819444444444446,real2,4308,7
906120.3819444444444446,real3,6326,4
906120.3819444444444446,real21,2088,9
906120.3819444444444446,real23,2754,10
906120.3819444444444446,real96,4040,6
906120.3819444444444446,real46,1726,10
906120.3819444444444446,real47,3679,9
906120.3819444444444446,real85,2746,10
910120.4951388888888896561,real33,28745,1
910120.4951388888888896561,real35,9026,2
910120.4951388888888896561,real79,7777,3
910120.4951388888888896561,real18,4641,5
910120.4951388888888896561,real24,15157,7
910120.4951388888888896561,real54,10953,2
910120.4951388888888896561,real48,8866,3
910120.4951388888888896561,real6,8305,8
910120.4951388888888896561,real7,7327,5
910120.4951388888888896561,real68,8441,7
910120.4951388888888896561,real38,7270,7
910120.4951388888888896561,real58,4084,8
910120.4951388888888896561,real86,7393,3
910120.4951388888888896561,real17,7457,7
910120.4951388888888896561,real71,4150,8
910120.4951388888888896561,real66,4791,8
910120.4951388888888896561,real19,34374,10
910120.4951388888888896561,real67,10960,10
910120.4951388888888896561,real32,4778,7
910120.4951388888888896561,real43,2890,3
910120.4951388888888896561,real93,7344,5
910120.4951388888888896561,real15,7745,4
910120.4951388888888896561,real16,4955,3
910120.4951388888888896561,real61,2651,8
910120.4951388888888896561,real44,8395,4
910120.4951388888888896561,real88,3043,3
910120.4951388888888896561,real69,4511,10
910120.4951388888888896561,real34,5593,8
910120.4951388888888896561,real13,8525,2
910120.4951388888888896561,real56,4352,10
910120.4951388888888896561,real80,17416,8
910120.4951388888888896561,real36,7290,3
910120.4951388888888896561,real62,7396,8
910120.4951388888888896561,real75,5923,9
910120.4951388888888896561,real39,5350,7
910120.4951388888888896561,real26,3542,3
910120.4951388888888896561,real37,8587,5
910120.4951388888888896561,real90,3388,7
910120.4951388888888896561,real72,6331,3
910120.4951388888888896561,real30,5908,8
910120.4951388888888896561,real77,3684,8
910120.4951388888888896561,real59,7935,3
910120.4951388888888896561,real73,2961,7
910120.4951388888888896561,real89,9472,2
910120.4951388888888896561,real82,8818,2
910120.4951388888888896561,real94,8866,8
910120.4951388888888896561,real64,9135,4
910120.4951388888888896561,real20,5802,8
910120.4951388888888896561,real5,14964,7
910120.4951388888888896561,real40,6024,3
910120.4951388888888896561,real22,4022,3
910120.4951388888888896561,real25,6380,3
910120.4951388888888896561,real9,4946,7
910120.4951388888888896561,real53,9778,1
910120.4951388888888896561,real60,7019,1
910120.4951388888888896561,real92,3250,3
910120.4951388888888896561,real91,7846,3
910120.4951388888888896561,real8,2059,1
910120.4951388888888896561,real4,2839,6
910120.4951388888888896561,real49,3019,6
910120.4951388888888896561,real31,6059,5
910120.4951388888888896561,real55,4008,6
910120.4951388888888896561,real14,4086,7
910120.4951388888888896561,real42,4473,2
910120.4951388888888896561,real50,6276,6
910120.4951388888888896561,real12,3904,2
910120.4951388888888896561,real11,10050,4
910120.4951388888888896561,real65,4304,3
910120.4951388888888896561,real95,7841,3
910120.4951388888888896561,real52,11247,3
910120.4951388888888896561,real78,9478,2
910120.4951388888888896561,real81,6106,5
910120.4951388888888896561,real76,6639,8
910120.4951388888888896561,real45,3540,8
910120.4951388888888896561,real29,3237,7
910120.4951388888888896561,real83,3962,3
910120.4951388888888896561,real51,5064,3
910120.4951388888888896561,real74,2764,8
910120.4951388888888896561,real1,2291,2
910120.4951388888888896561,real63,5638,1
910120.4951388888888896561,real41,17712,2
910120.4951388888888896561,real57,3655,3
910120.4951388888888896561,real70,4483,2
910120.4951388888888896561,real10,3550,1
910120.4951388888888896561,real28,9469,8
910120.4951388888888896561,real27,4403,6
910120.4951388888888896561,real84,4345,1
910120.4951388888888896561,real87,5098,2
910120.4951388888888896561,real2,2900,1
910120.4951388888888896561,real3,10438,3
910120.4951388888888896561,real21,3285,7
910120.4951388888888896561,real23,4048,5
910120.4951388888888896561,real96,3904,1
910120.4951388888888896561,real46,3035,8
910120.4951388888888896561,real47,5815,6
910120.4951388888888896561,real85,5294,4
910120.5437554,real33,5216,6
910120.5437554,real35,4494,5
910120.5437554,real79,6048,5
910120.5437554,real18,3629,7
910120.5437554,real24,6166,7
910120.5437554,real54,7534,7
910120.5437554,real48,8201,6
910120.5437554,real6,7001,6
910120.5437554,real7,5457,8
910120.5437554,real68,4246,7
910120.5437554,real38,7570,8
910120.5437554,real58,4851,6
910120.5437554,real86,7407,7
910120.5437554,real17,6783,6
910120.5437554,real71,7511,7
910120.5437554,real66,6729,6
910120.5437554,real19,4260,8
910120.5437554,real67,5135,8
910120.5437554,real32,6481,6
910120.5437554,real43,9429,7
910120.5437554,real93,9817,7
910120.5437554,real15,6073,6
910120.5437554,real16,6509,5
910120.5437554,real61,4847,6
910120.5437554,real44,6378,4
910120.5437554,real88,5145,5
910120.5437554,real69,4490,4
910120.5437554,real34,5517,8
910120.5437554,real13,9280,4
910120.5437554,real56,2501,6
910120.5437554,real80,2359,8
910120.5437554,real36,4039,7
910120.5437554,real62,5740,6
910120.5437554,real75,10125,5
910120.5437554,real39,9153,7
910120.5437554,real26,4043,4
910120.5437554,real37,9038,5
910120.5437554,real90,6452,7
910120.5437554,real72,6906,7
910120.5437554,real30,4501,6
910120.5437554,real77,4525,8
910120.5437554,real59,4367,5
910120.5437554,real73,5966,6
910120.5437554,real89,7927,8
910120.5437554,real82,16929,5
910120.5437554,real94,2367,8
910120.5437554,real64,5510,8
910120.5437554,real20,7144,6
910120.5437554,real5,3078,7
910120.5437554,real40,7633,5
910120.5437554,real22,10383,6
910120.5437554,real25,5880,7
910120.5437554,real9,11600,8
910120.5437554,real53,7066,4
910120.5437554,real60,5686,6
910120.5437554,real92,5129,8
910120.5437554,real91,9093,6
910120.5437554,real8,7537,3
910120.5437554,real4,5739,5
910120.5437554,real49,5981,8
910120.5437554,real31,8272,7
910120.5437554,real55,3221,7
910120.5437554,real14,6283,8
910120.5437554,real42,6383,5
910120.5437554,real50,6989,8
910120.5437554,real12,5182,8
910120.5437554,real11,8613,7
910120.5437554,real65,10148,4
910120.5437554,real95,6294,8
910120.5437554,real52,13145,7
910120.5437554,real78,6660,5
910120.5437554,real81,5649,8
910120.5437554,real76,11518,6
910120.5437554,real45,7346,7
910120.5437554,real29,6835,5
910120.5437554,real83,8193,6
910120.5437554,real51,8632,7
910120.5437554,real74,7502,8
910120.5437554,real1,5378,7
910120.5437554,real63,8121,5
910120.5437554,real41,8579,7
910120.5437554,real57,8787,6
910120.5437554,real70,8748,7
910120.5437554,real10,5566,3
910120.5437554,real28,6122,7
910120.5437554,real27,7300,4
910120.5437554,real84,3992,7
910120.5437554,real87,3063,7
910120.5437554,real2,8201,7
910120.5437554,real3,6241,4
910120.5437554,real21,4583,8
910120.5437554,real23,5766,8
910120.5437554,real96,8547,5
910120.5437554,real46,2789,8
910120.5437554,real47,3243,8
910120.5437554,real85,5735,8
910120.5819444444444444564561569,real33,9058,5
910120.5819444444444444564561569,real35,6639,6
910120.5819444444444444564561569,real79,1525,3
910120.5819444444444444564561569,real18,2550,8
910120.5819444444444444564561569,real24,13885,7
910120.5819444444444444564561569,real54,5684,4
910120.5819444444444444564561569,real48,5999,3
910120.5819444444444444564561569,real6,1847,10
910120.5819444444444444564561569,real7,2260,9
910120.5819444444444444564561569,real68,1655,10
910120.5819444444444444564561569,real38,1642,10
910120.5819444444444444564561569,real58,1079,10
910120.5819444444444444564561569,real86,1616,9
910120.5819444444444444564561569,real17,1229,10
910120.5819444444444444564561569,real71,848,10
910120.5819444444444444564561569,real66,1332,10
910120.5819444444444444564561569,real19,1121,10
910120.5819444444444444564561569,real67,2609,9
910120.5819444444444444564561569,real32,2686,7
910120.5819444444444444564561569,real43,2986,5
910120.5819444444444444564561569,real93,1952,4
910120.5819444444444444564561569,real15,3728,3
910120.5819444444444444564561569,real16,1377,9
910120.5819444444444444564561569,real61,1255,10
910120.5819444444444444564561569,real44,3805,7
910120.5819444444444444564561569,real88,4060,5
910120.5819444444444444564561569,real69,8135,8
910120.5819444444444444564561569,real34,5874,9
910120.5819444444444444564561569,real13,5559,9
910120.5819444444444444564561569,real56,1248,10
910120.5819444444444444564561569,real80,1115,10
910120.5819444444444444564561569,real36,1620,5
910120.5819444444444444564561569,real62,1896,9
910120.5819444444444444564561569,real75,5338,9
910120.5819444444444444564561569,real39,3691,6
910120.5819444444444444564561569,real26,5526,5
910120.5819444444444444564561569,real37,4322,6
910120.5819444444444444564561569,real90,1860,10
910120.5819444444444444564561569,real72,2495,9
910120.5819444444444444564561569,real30,1601,10
910120.5819444444444444564561569,real77,1317,10
910120.5819444444444444564561569,real59,2598,10
910120.5819444444444444564561569,real73,2100,10
910120.5819444444444444564561569,real89,3414,10
910120.5819444444444444564561569,real82,8361,9
910120.5819444444444444564561569,real94,1258,10
910120.5819444444444444564561569,real64,4437,9
910120.5819444444444444564561569,real20,987,10
910120.5819444444444444564561569,real5,2865,10
910120.5819444444444444564561569,real40,3748,9
910120.5819444444444444564561569,real22,3012,8
910120.5819444444444444564561569,real25,3553,9
910120.5819444444444444564561569,real9,3664,10
910120.5819444444444444564561569,real53,6172,9
910120.5819444444444444564561569,real60,8940,9
910120.5819444444444444564561569,real92,10527,10
910120.5819444444444444564561569,real91,5525,4
910120.5819444444444444564561569,real8,2911,3
910120.5819444444444444564561569,real4,1800,10
910120.5819444444444444564561569,real49,1814,10
910120.5819444444444444564561569,real31,6256,4
910120.5819444444444444564561569,real55,4301,10
910120.5819444444444444564561569,real14,14503,6
910120.5819444444444444564561569,real42,7581,7
910120.5819444444444444564561569,real50,1104,10
910120.5819444444444444564561569,real12,1402,10
910120.5819444444444444564561569,real11,2831,9
910120.5819444444444444564561569,real65,2276,9
910120.5819444444444444564561569,real95,6201,6
910120.5819444444444444564561569,real52,1536,10
910120.5819444444444444564561569,real78,1912,9
910120.5819444444444444564561569,real81,1281,10
910120.5819444444444444564561569,real76,1911,9
910120.5819444444444444564561569,real45,2039,10
910120.5819444444444444564561569,real29,1452,10
910120.5819444444444444564561569,real83,1887,8
910120.5819444444444444564561569,real51,2630,10
910120.5819444444444444564561569,real74,907,10
910120.5819444444444444564561569,real1,3692,9
910120.5819444444444444564561569,real63,5535,8
910120.5819444444444444564561569,real41,1112,10
910120.5819444444444444564561569,real57,5104,9
910120.5819444444444444564561569,real70,8979,10
910120.5819444444444444564561569,real10,11971,6
910120.5819444444444444564561569,real28,2938,10
910120.5819444444444444564561569,real27,1459,10
910120.5819444444444444564561569,real84,1807,9
910120.5819444444444444564561569,real87,940,10
910120.5819444444444444564561569,real2,7507,9
910120.5819444444444444564561569,real3,19086,8
910120.5819444444444444564561569,real21,1599,10
910120.5819444444444444564561569,real23,812,10
910120.5819444444444444564561569,real96,6147,8
910120.5819444444444444564561569,real46,1668,10
910120.5819444444444444564561569,real47,4415,7
910120.5819444444444444564561569,real85,2373,9
911120.4951388888888899814654,real33,6058,6
911120.4951388888888899814654,real35,3895,7
911120.4951388888888899814654,real79,3978,3
911120.4951388888888899814654,real18,4177,7
911120.4951388888888899814654,real24,5401,8
911120.4951388888888899814654,real54,5008,6
911120.4951388888888899814654,real48,8535,7
911120.4951388888888899814654,real6,22441,9
911120.4951388888888899814654,real7,6446,8
911120.4951388888888899814654,real68,4603,9
911120.4951388888888899814654,real38,6137,9
911120.4951388888888899814654,real58,3955,8
911120.4951388888888899814654,real86,8082,7
911120.4951388888888899814654,real17,3550,8
911120.4951388888888899814654,real71,4022,9
911120.4951388888888899814654,real66,4836,8
911120.4951388888888899814654,real19,4616,9
911120.4951388888888899814654,real67,12781,9
911120.4951388888888899814654,real32,4527,7
911120.4951388888888899814654,real43,3120,7
911120.4951388888888899814654,real93,5969,7
911120.4951388888888899814654,real15,10433,4
911120.4951388888888899814654,real16,4336,7
911120.4951388888888899814654,real61,6194,9
911120.4951388888888899814654,real44,4208,7
911120.4951388888888899814654,real88,6247,8
911120.4951388888888899814654,real69,4716,8
911120.4951388888888899814654,real34,3654,9
911120.4951388888888899814654,real13,12256,6
911120.4951388888888899814654,real56,9391,8
911120.4951388888888899814654,real80,2143,9
911120.4951388888888899814654,real36,4055,5
911120.4951388888888899814654,real62,6348,8
911120.4951388888888899814654,real75,3997,9
911120.4951388888888899814654,real39,4947,7
911120.4951388888888899814654,real26,15628,9
911120.4951388888888899814654,real37,5932,8
911120.4951388888888899814654,real90,10550,6
911120.4951388888888899814654,real72,4968,9
911120.4951388888888899814654,real30,7240,9
911120.4951388888888899814654,real77,4899,10
911120.4951388888888899814654,real59,6558,9
911120.4951388888888899814654,real73,4135,10
911120.4951388888888899814654,real89,2680,9
911120.4951388888888899814654,real82,5738,8
911120.4951388888888899814654,real94,3684,9
911120.4951388888888899814654,real64,17455,8
911120.4951388888888899814654,real20,6631,5
911120.4951388888888899814654,real5,3415,10
911120.4951388888888899814654,real40,3621,9
911120.4951388888888899814654,real22,6674,5
911120.4951388888888899814654,real25,13423,2
911120.4951388888888899814654,real9,6276,7
911120.4951388888888899814654,real53,4760,1
911120.4951388888888899814654,real60,10608,5
911120.4951388888888899814654,real92,3608,10
911120.4951388888888899814654,real91,7101,5
911120.4951388888888899814654,real8,5152,4
911120.4951388888888899814654,real4,3945,10
911120.4951388888888899814654,real49,7577,9
911120.4951388888888899814654,real31,4863,5
911120.4951388888888899814654,real55,3219,10
911120.4951388888888899814654,real14,4584,9
911120.4951388888888899814654,real42,9175,5
911120.4951388888888899814654,real50,2788,10
911120.4951388888888899814654,real12,3962,8
911120.4951388888888899814654,real11,3890,9
911120.4951388888888899814654,real65,4477,7
911120.4951388888888899814654,real95,2946,8
911120.4951388888888899814654,real52,1842,9
911120.4951388888888899814654,real78,6454,8
911120.4951388888888899814654,real81,4403,10
911120.4951388888888899814654,real76,4901,8
911120.4951388888888899814654,real45,5632,8
911120.4951388888888899814654,real29,4054,10
911120.4951388888888899814654,real83,3762,8
911120.4951388888888899814654,real51,6166,6
911120.4951388888888899814654,real74,5534,10
911120.4951388888888899814654,real1,4311,8
911120.4951388888888899814654,real63,2065,9
911120.4951388888888899814654,real41,5492,10
911120.4951388888888899814654,real57,2727,8
911120.4951388888888899814654,real70,1272,9
911120.4951388888888899814654,real10,4267,2
911120.4951388888888899814654,real28,6021,9
911120.4951388888888899814654,real27,7803,7
911120.4951388888888899814654,real84,2738,9
911120.4951388888888899814654,real87,3195,10
911120.4951388888888899814654,real2,8897,7
911120.4951388888888899814654,real3,4229,7
911120.4951388888888899814654,real21,3842,10
911120.4951388888888899814654,real23,3647,10
911120.4951388888888899814654,real96,7211,5
911120.4951388888888899814654,real46,3330,10
911120.4951388888888899814654,real47,2954,8
911120.4951388888888899814654,real85,4570,9
912120.3756944444444448,real33,7869,5
912120.3756944444444448,real35,2250,5
912120.3756944444444448,real79,2813,5
912120.3756944444444448,real18,3355,10
912120.3756944444444448,real24,8554,5
912120.3756944444444448,real54,2252,10
912120.3756944444444448,real48,3263,1
912120.3756944444444448,real6,1795,10
912120.3756944444444448,real7,3131,10
912120.3756944444444448,real68,4451,5
912120.3756944444444448,real38,3944,10
912120.3756944444444448,real58,7584,5
912120.3756944444444448,real86,5070,5
912120.3756944444444448,real17,1850,10
912120.3756944444444448,real71,3358,10
912120.3756944444444448,real66,5766,5
912120.3756944444444448,real19,1952,10
912120.3756944444444448,real67,1904,10
912120.3756944444444448,real32,3290,5
912120.3756944444444448,real43,3213,5
912120.3756944444444448,real93,9653,5
912120.3756944444444448,real15,5668,1
912120.3756944444444448,real16,4664,5
912120.3756944444444448,real61,1892,10
912120.3756944444444448,real44,7866,5
912120.3756944444444448,real88,6903,5
912120.3756944444444448,real69,3795,10
912120.3756944444444448,real34,4177,5
912120.3756944444444448,real13,3259,5
912120.3756944444444448,real56,2783,10
912120.3756944444444448,real80,2573,10
912120.3756944444444448,real36,3412,10
912120.3756944444444448,real62,4032,10
912120.3756944444444448,real75,5685,5
912120.3756944444444448,real39,4393,10
912120.3756944444444448,real26,5591,10
912120.3756944444444448,real37,3302,10
912120.3756944444444448,real90,4680,10
912120.3756944444444448,real72,4963,10
912120.3756944444444448,real30,3003,10
912120.3756944444444448,real77,3179,10
912120.3756944444444448,real59,4969,10
912120.3756944444444448,real73,3937,10
912120.3756944444444448,real89,5986,5
912120.3756944444444448,real82,4351,10
912120.3756944444444448,real94,2831,10
912120.3756944444444448,real64,1452,10
912120.3756944444444448,real20,1152,10
912120.3756944444444448,real5,5160,10
912120.3756944444444448,real40,2384,10
912120.3756944444444448,real22,1855,10
912120.3756944444444448,real25,5195,10
912120.3756944444444448,real9,3034,10
912120.3756944444444448,real53,3983,5
912120.3756944444444448,real60,5222,10
912120.3756944444444448,real92,2636,10
912120.3756944444444448,real91,2490,10
912120.3756944444444448,real8,3469,5
912120.3756944444444448,real4,5064,10
912120.3756944444444448,real49,5020,10
912120.3756944444444448,real31,6157,5
912120.3756944444444448,real55,2582,10
912120.3756944444444448,real14,2501,10
912120.3756944444444448,real42,4143,5
912120.3756944444444448,real50,3330,10
912120.3756944444444448,real12,2819,10
912120.3756944444444448,real11,4040,10
912120.3756944444444448,real65,3117,5
912120.3756944444444448,real95,4974,10
912120.3756944444444448,real52,2014,5
912120.3756944444444448,real78,2731,10
912120.3756944444444448,real81,2523,10
912120.3756944444444448,real76,3571,10
912120.3756944444444448,real45,7386,10
912120.3756944444444448,real29,1243,10
912120.3756944444444448,real83,1558,10
912120.3756944444444448,real51,3421,5
912120.3756944444444448,real74,4098,10
912120.3756944444444448,real1,4212,5
912120.3756944444444448,real63,5378,10
912120.3756944444444448,real41,2686,10
912120.3756944444444448,real57,4280,10
912120.3756944444444448,real70,3907,5
912120.3756944444444448,real10,4078,5
912120.3756944444444448,real28,3061,5
912120.3756944444444448,real27,5409,10
912120.3756944444444448,real84,2159,10
912120.3756944444444448,real87,1270,10
912120.3756944444444448,real2,3516,5
912120.3756944444444448,real3,2957,5
912120.3756944444444448,real21,2526,10
912120.3756944444444448,real23,1975,10
912120.3756944444444448,real96,4774,5
912120.3756944444444448,real46,1926,10
912120.3756944444444448,real47,1631,10
912120.3756944444444448,real85,6483,5
912120.3972222222222228,real33,5554,2
912120.3972222222222228,real35,3019,3
912120.3972222222222228,real79,4360,2
912120.3972222222222228,real18,4536,9
912120.3972222222222228,real24,3674,9
912120.3972222222222228,real54,3821,4
912120.3972222222222228,real48,3467,2
912120.3972222222222228,real6,4086,9
912120.3972222222222228,real7,2206,9
912120.3972222222222228,real68,4476,3
912120.3972222222222228,real38,1647,9
912120.3972222222222228,real58,1210,9
912120.3972222222222228,real86,2936,4
912120.3972222222222228,real17,3089,3
912120.3972222222222228,real71,2820,9
912120.3972222222222228,real66,1929,6
912120.3972222222222228,real19,1453,9
912120.3972222222222228,real67,1104,9
912120.3972222222222228,real32,5185,6
912120.3972222222222228,real43,2121,4
912120.3972222222222228,real93,2612,9
912120.3972222222222228,real15,2857,9
912120.3972222222222228,real16,2117,4
912120.3972222222222228,real61,1670,9
912120.3972222222222228,real44,8363,3
912120.3972222222222228,real88,3068,2
912120.3972222222222228,real69,2087,4
912120.3972222222222228,real34,1778,9
912120.3972222222222228,real13,4581,8
912120.3972222222222228,real56,1588,9
912120.3972222222222228,real80,2147,6
912120.3972222222222228,real36,1666,4
912120.3972222222222228,real62,1481,9
912120.3972222222222228,real75,1563,9
912120.3972222222222228,real39,7666,6
912120.3972222222222228,real26,2127,4
912120.3972222222222228,real37,2509,9
912120.3972222222222228,real90,1799,9
912120.3972222222222228,real72,1653,6
912120.3972222222222228,real30,1840,9
912120.3972222222222228,real77,5370,9
912120.3972222222222228,real59,2283,7
912120.3972222222222228,real73,1933,9
912120.3972222222222228,real89,2213,6
912120.3972222222222228,real82,2508,7
912120.3972222222222228,real94,1302,9
912120.3972222222222228,real64,1920,9
912120.3972222222222228,real20,2176,9
912120.3972222222222228,real5,1403,9
912120.3972222222222228,real40,1448,6
912120.3972222222222228,real22,1988,5
912120.3972222222222228,real25,1882,7
912120.3972222222222228,real9,2296,8
912120.3972222222222228,real53,3514,3
912120.3972222222222228,real60,1716,4
912120.3972222222222228,real92,1213,9
912120.3972222222222228,real91,1691,4
912120.3972222222222228,real8,1422,3
912120.3972222222222228,real4,1410,9
912120.3972222222222228,real49,3271,3
912120.3972222222222228,real31,7948,7
912120.3972222222222228,real55,1126,9
912120.3972222222222228,real14,1351,9
912120.3972222222222228,real42,4014,5
912120.3972222222222228,real50,2357,9
912120.3972222222222228,real12,2037,8
912120.3972222222222228,real11,4241,5
912120.3972222222222228,real65,2118,2
912120.3972222222222228,real95,2521,9
912120.3972222222222228,real52,3514,4
912120.3972222222222228,real78,1548,9
912120.3972222222222228,real81,1107,9
912120.3972222222222228,real76,2848,2
912120.3972222222222228,real45,1260,2
912120.3972222222222228,real29,1295,9
912120.3972222222222228,real83,2033,4
912120.3972222222222228,real51,2141,5
912120.3972222222222228,real74,1590,9
912120.3972222222222228,real1,2676,8
912120.3972222222222228,real63,1967,5
912120.3972222222222228,real41,1118,9
912120.3972222222222228,real57,1887,7
912120.3972222222222228,real70,1913,9
912120.3972222222222228,real10,2978,2
912120.3972222222222228,real28,2091,6
912120.3972222222222228,real27,1301,9
912120.3972222222222228,real84,1759,9
912120.3972222222222228,real87,742,9
912120.3972222222222228,real2,9155,5
912120.3972222222222228,real3,2477,1
912120.3972222222222228,real21,1840,9
912120.3972222222222228,real23,7092,9
912120.3972222222222228,real96,5164,3
912120.3972222222222228,real46,1228,9
912120.3972222222222228,real47,1712,9
912120.3972222222222228,real85,1065,9
912120.4104166666666678,real33,7772,4
912120.4104166666666678,real35,4821,8
912120.4104166666666678,real79,3595,2
912120.4104166666666678,real18,5762,6
912120.4104166666666678,real24,5275,8
912120.4104166666666678,real54,3799,6
912120.4104166666666678,real48,5933,5
912120.4104166666666678,real6,2807,6
912120.4104166666666678,real7,3411,6
912120.4104166666666678,real68,3288,4
912120.4104166666666678,real38,5147,7
912120.4104166666666678,real58,2428,8
912120.4104166666666678,real86,8031,8
912120.4104166666666678,real17,6901,7
912120.4104166666666678,real71,3744,9
912120.4104166666666678,real66,6025,2
912120.4104166666666678,real19,3851,6
912120.4104166666666678,real67,6759,6
912120.4104166666666678,real32,3216,2
912120.4104166666666678,real43,6365,7
912120.4104166666666678,real93,5313,9
912120.4104166666666678,real15,4403,2
912120.4104166666666678,real16,5929,7
912120.4104166666666678,real61,4347,6
912120.4104166666666678,real44,5114,2
912120.4104166666666678,real88,4580,8
912120.4104166666666678,real69,3723,6
912120.4104166666666678,real34,3773,9
912120.4104166666666678,real13,9488,8
912120.4104166666666678,real56,5981,4
912120.4104166666666678,real80,5813,8
912120.4104166666666678,real36,11947,3
912120.4104166666666678,real62,4345,6
912120.4104166666666678,real75,3545,8
912120.4104166666666678,real39,4866,1
912120.4104166666666678,real26,4109,5
912120.4104166666666678,real37,6287,7
912120.4104166666666678,real90,4667,2
912120.4104166666666678,real72,9998,9
912120.4104166666666678,real30,3999,10
912120.4104166666666678,real77,6748,5
912120.4104166666666678,real59,5085,4
912120.4104166666666678,real73,2816,8
912120.4104166666666678,real89,2918,9
912120.4104166666666678,real82,3104,9
912120.4104166666666678,real94,1554,9
912120.4104166666666678,real64,2562,9
912120.4104166666666678,real20,9864,3
912120.4104166666666678,real5,2752,8
912120.4104166666666678,real40,3519,8
912120.4104166666666678,real22,5737,2
912120.4104166666666678,real25,7715,1
912120.4104166666666678,real9,3295,10
912120.4104166666666678,real53,3361,1
912120.4104166666666678,real60,5256,9
912120.4104166666666678,real92,2205,6
912120.4104166666666678,real91,5020,2
912120.4104166666666678,real8,4626,6
912120.4104166666666678,real4,5599,3
912120.4104166666666678,real49,4550,10
912120.4104166666666678,real31,4184,10
912120.4104166666666678,real55,4727,9
912120.4104166666666678,real14,5576,8
912120.4104166666666678,real42,2712,5
912120.4104166666666678,real50,4464,9
912120.4104166666666678,real12,3427,10
912120.4104166666666678,real11,4736,4
912120.4104166666666678,real65,3466,9
912120.4104166666666678,real95,6236,10
912120.4104166666666678,real52,3050,1
912120.4104166666666678,real78,3758,6
912120.4104166666666678,real81,2255,9
912120.4104166666666678,real76,5823,4
912120.4104166666666678,real45,5757,4
912120.4104166666666678,real29,4926,7
912120.4104166666666678,real83,2583,10
912120.4104166666666678,real51,4567,5
912120.4104166666666678,real74,4598,8
912120.4104166666666678,real1,2469,10
912120.4104166666666678,real63,2712,2
912120.4104166666666678,real41,2972,7
912120.4104166666666678,real57,2835,9
912120.4104166666666678,real70,4399,5
912120.4104166666666678,real10,6958,1
912120.4104166666666678,real28,3238,9
912120.4104166666666678,real27,4490,5
912120.4104166666666678,real84,2397,9
912120.4104166666666678,real87,3211,6
912120.4104166666666678,real2,7132,2
912120.4104166666666678,real3,5086,6
912120.4104166666666678,real21,2784,7
912120.4104166666666678,real23,5048,9
912120.4104166666666678,real96,4206,1
912120.4104166666666678,real46,2708,6
912120.4104166666666678,real47,2454,9
912120.4104166666666678,real85,5418,7
912120.49097222222222245,real33,3489,6
912120.49097222222222245,real35,3676,5
912120.49097222222222245,real79,3103,6
912120.49097222222222245,real18,2553,7
912120.49097222222222245,real24,5617,7
912120.49097222222222245,real54,2032,3
912120.49097222222222245,real48,3548,6
912120.49097222222222245,real6,2108,9
912120.49097222222222245,real7,2390,7
912120.49097222222222245,real68,3925,5
912120.49097222222222245,real38,1678,7
912120.49097222222222245,real58,2193,8
912120.49097222222222245,real86,2764,4
912120.49097222222222245,real17,2916,8
912120.49097222222222245,real71,1573,7
912120.49097222222222245,real66,2228,6
912120.49097222222222245,real19,2786,9
912120.49097222222222245,real67,1848,8
912120.49097222222222245,real32,2587,5
912120.49097222222222245,real43,2018,6
912120.49097222222222245,real93,2560,3
912120.49097222222222245,real15,3543,5
912120.49097222222222245,real16,2311,4
912120.49097222222222245,real61,1928,9
912120.49097222222222245,real44,2791,6
912120.49097222222222245,real88,3046,5
912120.49097222222222245,real69,1514,8
912120.49097222222222245,real34,3515,7
912120.49097222222222245,real13,4719,6
912120.49097222222222245,real56,1785,8
912120.49097222222222245,real80,3047,4
912120.49097222222222245,real36,2715,2
912120.49097222222222245,real62,1731,7
912120.49097222222222245,real75,3484,8
912120.49097222222222245,real39,1943,7
912120.49097222222222245,real26,2135,4
912120.49097222222222245,real37,2073,8
912120.49097222222222245,real90,2236,5
912120.49097222222222245,real72,1889,7
912120.49097222222222245,real30,1339,9
912120.49097222222222245,real77,2058,10
912120.49097222222222245,real59,2286,4
912120.49097222222222245,real73,1312,9
912120.49097222222222245,real89,3113,7
912120.49097222222222245,real82,1882,7
912120.49097222222222245,real94,1836,6
912120.49097222222222245,real64,2001,5
912120.49097222222222245,real20,2038,7
912120.49097222222222245,real5,2153,8
912120.49097222222222245,real40,3048,2
912120.49097222222222245,real22,4276,4
912120.49097222222222245,real25,2439,3
912120.49097222222222245,real9,4126,6
912120.49097222222222245,real53,2751,1
912120.49097222222222245,real60,3639,6
912120.49097222222222245,real92,2004,10
912120.49097222222222245,real91,1838,3
912120.49097222222222245,real8,2667,1
912120.49097222222222245,real4,1718,10
912120.49097222222222245,real49,2279,7
912120.49097222222222245,real31,1971,4
912120.49097222222222245,real55,2154,10
912120.49097222222222245,real14,1658,8
912120.49097222222222245,real42,2565,5
912120.49097222222222245,real50,1584,9
912120.49097222222222245,real12,3694,6
912120.49097222222222245,real11,4497,5
912120.49097222222222245,real65,1971,3
912120.49097222222222245,real95,1885,8
912120.49097222222222245,real52,1496,8
912120.49097222222222245,real78,2473,3
912120.49097222222222245,real81,1308,10
912120.49097222222222245,real76,4882,3
912120.49097222222222245,real45,1806,7
912120.49097222222222245,real29,1491,9
912120.49097222222222245,real83,2574,5
912120.49097222222222245,real51,2496,3
912120.49097222222222245,real74,1482,9
912120.49097222222222245,real1,1836,5
912120.49097222222222245,real63,2152,6
912120.49097222222222245,real41,2587,9
912120.49097222222222245,real57,2137,4
912120.49097222222222245,real70,4330,5
912120.49097222222222245,real10,2515,3
912120.49097222222222245,real28,3666,7
912120.49097222222222245,real27,2806,5
912120.49097222222222245,real84,4867,6
912120.49097222222222245,real87,2088,10
912120.49097222222222245,real2,4066,3
912120.49097222222222245,real3,2246,2
912120.49097222222222245,real21,2386,9
912120.49097222222222245,real23,3408,7
912120.49097222222222245,real96,3221,1
912120.49097222222222245,real46,4458,8
912120.49097222222222245,real47,4695,4
912120.49097222222222245,real85,7033,3
912120.624305555555556525922929,real33,5694,7
912120.624305555555556525922929,real35,6552,5
912120.624305555555556525922929,real79,1554,5
912120.624305555555556525922929,real18,3633,7
912120.624305555555556525922929,real24,6645,6
912120.624305555555556525922929,real54,6634,8
912120.624305555555556525922929,real48,3368,5
912120.624305555555556525922929,real6,2447,7
912120.624305555555556525922929,real7,2372,9
912120.624305555555556525922929,real68,3059,7
912120.624305555555556525922929,real38,4671,6
912120.624305555555556525922929,real58,5659,7
912120.624305555555556525922929,real86,4630,8
912120.624305555555556525922929,real17,2371,8
912120.624305555555556525922929,real71,2082,8
912120.624305555555556525922929,real66,1956,8
912120.624305555555556525922929,real19,1781,8
912120.624305555555556525922929,real67,1611,7
912120.624305555555556525922929,real32,2392,9
912120.624305555555556525922929,real43,3590,6
912120.624305555555556525922929,real93,2444,8
912120.624305555555556525922929,real15,2289,5
912120.624305555555556525922929,real16,3539,6
912120.624305555555556525922929,real61,2077,9
912120.624305555555556525922929,real44,3892,8
912120.624305555555556525922929,real88,2735,6
912120.624305555555556525922929,real69,1944,7
912120.624305555555556525922929,real34,3447,10
912120.624305555555556525922929,real13,1841,8
912120.624305555555556525922929,real56,2422,7
912120.624305555555556525922929,real80,2651,8
912120.624305555555556525922929,real36,3558,6
912120.624305555555556525922929,real62,1665,7
912120.624305555555556525922929,real75,3348,8
912120.624305555555556525922929,real39,3236,8
912120.624305555555556525922929,real26,2841,6
912120.624305555555556525922929,real37,5346,8
912120.624305555555556525922929,real90,1651,7
912120.624305555555556525922929,real72,2854,8
912120.624305555555556525922929,real30,1883,9
912120.624305555555556525922929,real77,2328,8
912120.624305555555556525922929,real59,2600,6
912120.624305555555556525922929,real73,2342,8
912120.624305555555556525922929,real89,4254,8
912120.624305555555556525922929,real82,6929,8
912120.624305555555556525922929,real94,2131,8
912120.624305555555556525922929,real64,2012,9
912120.624305555555556525922929,real20,3841,9
912120.624305555555556525922929,real5,6630,10
912120.624305555555556525922929,real40,2900,9
912120.624305555555556525922929,real22,1886,9
912120.624305555555556525922929,real25,3568,7
912120.624305555555556525922929,real9,2512,9
912120.624305555555556525922929,real53,4466,9
912120.624305555555556525922929,real60,4781,7
912120.624305555555556525922929,real92,2565,8
912120.624305555555556525922929,real91,9703,8
912120.624305555555556525922929,real8,3860,6
912120.624305555555556525922929,real4,3079,7
912120.624305555555556525922929,real49,3410,10
912120.624305555555556525922929,real31,3665,7
912120.624305555555556525922929,real55,3045,8
912120.624305555555556525922929,real14,4537,9
912120.624305555555556525922929,real42,4041,8
912120.624305555555556525922929,real50,1579,7
912120.624305555555556525922929,real12,2425,9
912120.624305555555556525922929,real11,7374,9
912120.624305555555556525922929,real65,3031,7
912120.624305555555556525922929,real95,3468,9
912120.624305555555556525922929,real52,4624,5
912120.624305555555556525922929,real78,9293,6
912120.624305555555556525922929,real81,2090,7
912120.624305555555556525922929,real76,2364,8
912120.624305555555556525922929,real45,2580,6
912120.624305555555556525922929,real29,7162,8
912120.624305555555556525922929,real83,4483,8
912120.624305555555556525922929,real51,2005,8
912120.624305555555556525922929,real74,1483,9
912120.624305555555556525922929,real1,1661,10
912120.624305555555556525922929,real63,1784,9
912120.624305555555556525922929,real41,2437,7
912120.624305555555556525922929,real57,3050,9
912120.624305555555556525922929,real70,9502,8
912120.624305555555556525922929,real10,2546,4
912120.624305555555556525922929,real28,3247,9
912120.624305555555556525922929,real27,5851,8
912120.624305555555556525922929,real84,4384,7
912120.624305555555556525922929,real87,1519,8
912120.624305555555556525922929,real2,3490,5
912120.624305555555556525922929,real3,3949,5
912120.624305555555556525922929,real21,4837,9
912120.624305555555556525922929,real23,4163,9
912120.624305555555556525922929,real96,3411,5
912120.624305555555556525922929,real46,2128,9
912120.624305555555556525922929,real47,1984,8
912120.624305555555556525922929,real85,2655,8
913120.5006944444444444566,real33,13253,9
913120.5006944444444444566,real35,4965,6
913120.5006944444444444566,real79,6133,4
913120.5006944444444444566,real18,4575,5
913120.5006944444444444566,real24,6439,9
913120.5006944444444444566,real54,10493,7
913120.5006944444444444566,real48,7408,6
913120.5006944444444444566,real6,5872,9
913120.5006944444444444566,real7,7061,7
913120.5006944444444444566,real68,7793,5
913120.5006944444444444566,real38,4889,8
913120.5006944444444444566,real58,7212,8
913120.5006944444444444566,real86,5638,6
913120.5006944444444444566,real17,5676,8
913120.5006944444444444566,real71,4799,7
913120.5006944444444444566,real66,6574,4
913120.5006944444444444566,real19,5613,8
913120.5006944444444444566,real67,9275,8
913120.5006944444444444566,real32,6080,2
913120.5006944444444444566,real43,7212,4
913120.5006944444444444566,real93,4839,6
913120.5006944444444444566,real15,10340,5
913120.5006944444444444566,real16,5759,4
913120.5006944444444444566,real61,4455,9
913120.5006944444444444566,real44,14071,4
913120.5006944444444444566,real88,9583,4
913120.5006944444444444566,real69,8688,5
913120.5006944444444444566,real34,6380,7
913120.5006944444444444566,real13,4070,7
913120.5006944444444444566,real56,2138,8
913120.5006944444444444566,real80,26562,7
913120.5006944444444444566,real36,4090,5
913120.5006944444444444566,real62,3041,7
913120.5006944444444444566,real75,5662,7
913120.5006944444444444566,real39,4138,3
913120.5006944444444444566,real26,6067,4
913120.5006944444444444566,real37,5294,3
913120.5006944444444444566,real90,7713,4
913120.5006944444444444566,real72,7212,6
913120.5006944444444444566,real30,3963,9
913120.5006944444444444566,real77,5491,7
913120.5006944444444444566,real59,5535,4
913120.5006944444444444566,real73,2104,9
913120.5006944444444444566,real89,3106,8
913120.5006944444444444566,real82,7465,6
913120.5006944444444444566,real94,4678,7
913120.5006944444444444566,real64,2209,8
913120.5006944444444444566,real20,2911,8
913120.5006944444444444566,real5,3987,8
913120.5006944444444444566,real40,2066,8
913120.5006944444444444566,real22,3453,4
913120.5006944444444444566,real25,3793,5
913120.5006944444444444566,real9,4318,7
913120.5006944444444444566,real53,5575,5
913120.5006944444444444566,real60,3023,6
913120.5006944444444444566,real92,2316,9
913120.5006944444444444566,real91,10670,4
913120.5006944444444444566,real8,4724,3
913120.5006944444444444566,real4,2382,9
913120.5006944444444444566,real49,3701,8
913120.5006944444444444566,real31,7197,5
913120.5006944444444444566,real55,4149,8
913120.5006944444444444566,real14,2837,7
913120.5006944444444444566,real42,4994,4
913120.5006944444444444566,real50,1741,9
913120.5006944444444444566,real12,2902,7
913120.5006944444444444566,real11,5591,6
913120.5006944444444444566,real65,4623,5
913120.5006944444444444566,real95,6024,6
913120.5006944444444444566,real52,3510,5
913120.5006944444444444566,real78,4007,7
913120.5006944444444444566,real81,2102,9
913120.5006944444444444566,real76,5215,4
913120.5006944444444444566,real45,4949,5
913120.5006944444444444566,real29,2270,9
913120.5006944444444444566,real83,2513,7
913120.5006944444444444566,real51,6202,5
913120.5006944444444444566,real74,2137,8
913120.5006944444444444566,real1,4161,5
913120.5006944444444444566,real63,1977,4
913120.5006944444444444566,real41,2391,7
913120.5006944444444444566,real57,3478,7
913120.5006944444444444566,real70,4072,4
913120.5006944444444444566,real10,5788,2
913120.5006944444444444566,real28,11726,7
913120.5006944444444444566,real27,3794,6
913120.5006944444444444566,real84,8608,4
913120.5006944444444444566,real87,1848,9
913120.5006944444444444566,real2,5896,3
913120.5006944444444444566,real3,2907,6
913120.5006944444444444566,real21,2022,9
913120.5006944444444444566,real23,3058,7
913120.5006944444444444566,real96,4465,5
913120.5006944444444444566,real46,1613,9
913120.5006944444444444566,real47,2450,7
913120.5006944444444444566,real85,5541,4
827120.5236111111111114545,real33,486,0
904120.59583333333333345,real33,4129,7
904120.59583333333333345,real35,9401,5
904120.59583333333333345,real79,3298,4
904120.59583333333333345,real18,2644,7
904120.59583333333333345,real24,6350,9
904120.59583333333333345,real54,3487,4
904120.59583333333333345,real48,2785,5
904120.59583333333333345,real6,3079,10
904120.59583333333333345,real7,4610,7
904120.59583333333333345,real68,3040,8
904120.59583333333333345,real38,5109,7
904120.59583333333333345,real58,6863,7
904120.59583333333333345,real86,2637,4
904120.59583333333333345,real17,2505,6
904120.59583333333333345,real71,3627,8
904120.59583333333333345,real66,2456,9
904120.59583333333333345,real19,1756,9
904120.59583333333333345,real67,1947,10
904120.59583333333333345,real32,1979,8
904120.59583333333333345,real43,2833,7
904120.59583333333333345,real93,2800,5
904120.59583333333333345,real15,2397,6
904120.59583333333333345,real16,3579,5
904120.59583333333333345,real61,1746,8
904120.59583333333333345,real44,4011,9
904120.59583333333333345,real88,4416,4
904120.59583333333333345,real69,1182,4
904120.59583333333333345,real34,3468,10
904120.59583333333333345,real13,5299,4
904120.59583333333333345,real56,2718,9
904120.59583333333333345,real80,1639,10
904120.59583333333333345,real36,5667,5
904120.59583333333333345,real62,2780,10
904120.59583333333333345,real75,3683,10
904120.59583333333333345,real39,5046,5
904120.59583333333333345,real26,2962,7
904120.59583333333333345,real37,1191,9
904120.59583333333333345,real90,2021,10
904120.59583333333333345,real72,6538,6
904120.59583333333333345,real30,4299,9
904120.59583333333333345,real77,1752,10
904120.59583333333333345,real59,3455,3
904120.59583333333333345,real73,5819,9
904120.59583333333333345,real89,7065,9
904120.59583333333333345,real82,3731,10
904120.59583333333333345,real94,1644,10
904120.59583333333333345,real64,3855,8
904120.59583333333333345,real20,5466,9
904120.59583333333333345,real5,1377,10
904120.59583333333333345,real40,3783,7
904120.59583333333333345,real22,2758,9
904120.59583333333333345,real25,3038,10
904120.59583333333333345,real9,3160,6
904120.59583333333333345,real53,4191,1
904120.59583333333333345,real60,4519,7
904120.59583333333333345,real92,1488,10
904120.59583333333333345,real91,2220,9
904120.59583333333333345,real8,4489,7
904120.59583333333333345,real4,2204,10
904120.59583333333333345,real49,5690,6
904120.59583333333333345,real31,8392,2
904120.59583333333333345,real55,1959,10
904120.59583333333333345,real14,3319,10
904120.59583333333333345,real42,2704,8
904120.59583333333333345,real50,1368,10
904120.59583333333333345,real12,2279,10
904120.59583333333333345,real11,969,10
904120.59583333333333345,real65,2664,6
904120.59583333333333345,real95,2263,10
904120.59583333333333345,real52,1523,10
904120.59583333333333345,real78,4347,5
904120.59583333333333345,real81,1452,10
904120.59583333333333345,real76,1979,10
904120.59583333333333345,real45,2809,6
904120.59583333333333345,real29,2039,10
904120.59583333333333345,real83,2555,8
904120.59583333333333345,real51,1722,8
904120.59583333333333345,real74,2259,10
904120.59583333333333345,real1,1422,10
904120.59583333333333345,real63,2227,10
904120.59583333333333345,real41,1452,10
904120.59583333333333345,real57,3920,6
904120.59583333333333345,real70,2145,8
904120.59583333333333345,real10,2857,2
904120.59583333333333345,real28,2522,9
904120.59583333333333345,real27,1858,10
904120.59583333333333345,real84,2839,10
904120.59583333333333345,real87,1156,10
904120.59583333333333345,real2,2886,7
904120.59583333333333345,real3,2177,5
904120.59583333333333345,real21,1744,10
904120.59583333333333345,real23,1542,10
904120.59583333333333345,real96,3977,7
904120.59583333333333345,real46,1576,10
904120.59583333333333345,real47,2159,5
904120.59583333333333345,real85,3175,10
904120.60555555555555696,real33,2345,2
904120.60555555555555696,real35,2409,5
904120.60555555555555696,real79,1231,3
904120.60555555555555696,real18,1619,7
904120.60555555555555696,real24,2271,5
904120.60555555555555696,real54,2450,4
904120.60555555555555696,real48,3390,3
904120.60555555555555696,real6,2541,10
904120.60555555555555696,real7,2613,7
904120.60555555555555696,real68,1874,5
904120.60555555555555696,real38,2421,5
904120.60555555555555696,real58,1890,7
904120.60555555555555696,real86,2938,3
904120.60555555555555696,real17,1770,8
904120.60555555555555696,real71,2849,3
904120.60555555555555696,real66,1997,6
904120.60555555555555696,real19,1731,9
904120.60555555555555696,real67,1931,3
904120.60555555555555696,real32,2508,6
904120.60555555555555696,real43,2870,5
904120.60555555555555696,real93,2288,5
904120.60555555555555696,real15,3130,7
904120.60555555555555696,real16,2818,6
904120.60555555555555696,real61,2696,10
904120.60555555555555696,real44,2883,6
904120.60555555555555696,real88,2134,5
904120.60555555555555696,real69,1382,8
904120.60555555555555696,real34,2420,9
904120.60555555555555696,real13,3179,8
904120.60555555555555696,real56,3393,10
904120.60555555555555696,real80,1840,8
904120.60555555555555696,real36,1947,6
904120.60555555555555696,real62,2835,7
904120.60555555555555696,real75,2808,7
904120.60555555555555696,real39,2061,4
904120.60555555555555696,real26,2353,3
904120.60555555555555696,real37,6076,7
904120.60555555555555696,real90,3448,5
904120.60555555555555696,real72,2677,5
904120.60555555555555696,real30,2567,6
904120.60555555555555696,real77,2782,5
904120.60555555555555696,real59,2429,4
904120.60555555555555696,real73,2049,9
904120.60555555555555696,real89,2445,5
904120.60555555555555696,real82,2772,3
904120.60555555555555696,real94,1963,4
904120.60555555555555696,real64,2290,5
904120.60555555555555696,real20,1845,6
904120.60555555555555696,real5,2624,10
904120.60555555555555696,real40,1949,7
904120.60555555555555696,real22,1989,6
904120.60555555555555696,real25,1827,5
904120.60555555555555696,real9,2601,5
904120.60555555555555696,real53,2246,8
904120.60555555555555696,real60,3058,6
904120.60555555555555696,real92,3150,10
904120.60555555555555696,real91,2651,6
904120.60555555555555696,real8,3351,6
904120.60555555555555696,real4,1719,9
904120.60555555555555696,real49,2488,4
904120.60555555555555696,real31,7515,1
904120.60555555555555696,real55,2262,10
904120.60555555555555696,real14,2889,2
904120.60555555555555696,real42,2508,4
904120.60555555555555696,real50,1969,10
904120.60555555555555696,real12,2368,5
904120.60555555555555696,real11,3159,6
904120.60555555555555696,real65,1383,4
904120.60555555555555696,real95,2925,4
904120.60555555555555696,real52,2742,6
904120.60555555555555696,real78,2350,5
904120.60555555555555696,real81,1902,10
904120.60555555555555696,real76,1821,5
904120.60555555555555696,real45,3682,4
904120.60555555555555696,real29,2036,10
904120.60555555555555696,real83,2417,6
904120.60555555555555696,real51,3345,2
904120.60555555555555696,real74,1881,10
904120.60555555555555696,real1,1971,2
904120.60555555555555696,real63,2186,4
904120.60555555555555696,real41,1570,9
904120.60555555555555696,real57,3928,6
904120.60555555555555696,real70,1561,4
904120.60555555555555696,real10,1920,2
904120.60555555555555696,real28,4249,7
904120.60555555555555696,real27,2324,6
904120.60555555555555696,real84,2518,4
904120.60555555555555696,real87,1951,10
904120.60555555555555696,real2,1814,4
904120.60555555555555696,real3,3322,3
904120.60555555555555696,real21,3284,8
904120.60555555555555696,real23,3575,8
904120.60555555555555696,real96,3043,3
904120.60555555555555696,real46,2288,10
904120.60555555555555696,real47,1402,3
904120.60555555555555696,real85,3911,8
906120.50138888888888977889,real33,8940,8
906120.50138888888888977889,real35,4791,4
906120.50138888888888977889,real79,4094,8
906120.50138888888888977889,real18,5320,6
906120.50138888888888977889,real24,2379,9
906120.50138888888888977889,real54,3457,6
906120.50138888888888977889,real48,3389,4
906120.50138888888888977889,real6,2324,10
906120.50138888888888977889,real7,3045,8
906120.50138888888888977889,real68,3649,4
906120.50138888888888977889,real38,3717,8
906120.50138888888888977889,real58,2502,8
906120.50138888888888977889,real86,3864,6
906120.50138888888888977889,real17,2964,9
906120.50138888888888977889,real71,1987,10
906120.50138888888888977889,real66,1993,4
906120.50138888888888977889,real19,1851,10
906120.50138888888888977889,real67,3911,6
906120.50138888888888977889,real32,2121,4
906120.50138888888888977889,real43,2666,3
906120.50138888888888977889,real93,3672,2
906120.50138888888888977889,real15,4004,2
906120.50138888888888977889,real16,3802,9
906120.50138888888888977889,real61,2248,10
906120.50138888888888977889,real44,3438,7
906120.50138888888888977889,real88,2251,2
906120.50138888888888977889,real69,2279,3
906120.50138888888888977889,real34,2105,10
906120.50138888888888977889,real13,5188,4
906120.50138888888888977889,real56,1948,10
906120.50138888888888977889,real80,2491,6
906120.50138888888888977889,real36,1142,7
906120.50138888888888977889,real62,2184,4
906120.50138888888888977889,real75,3007,9
906120.50138888888888977889,real39,1540,3
906120.50138888888888977889,real26,1693,8
906120.50138888888888977889,real37,3124,8
906120.50138888888888977889,real90,2174,7
906120.50138888888888977889,real72,2605,5
906120.50138888888888977889,real30,1795,10
906120.50138888888888977889,real77,1727,10
906120.50138888888888977889,real59,4062,1
906120.50138888888888977889,real73,3011,10
906120.50138888888888977889,real89,5696,4
906120.50138888888888977889,real82,3860,7
906120.50138888888888977889,real94,1999,4
906120.50138888888888977889,real64,6677,8
906120.50138888888888977889,real20,3977,8
906120.50138888888888977889,real5,1777,10
906120.50138888888888977889,real40,2816,2
906120.50138888888888977889,real22,2061,3
906120.50138888888888977889,real25,3208,1
906120.50138888888888977889,real9,1740,3
906120.50138888888888977889,real53,4764,5
906120.50138888888888977889,real60,2436,4
906120.50138888888888977889,real92,2352,10
906120.50138888888888977889,real91,2311,4
906120.50138888888888977889,real8,2232,2
906120.50138888888888977889,real4,1876,10
906120.50138888888888977889,real49,1727,3
906120.50138888888888977889,real31,1933,4
906120.50138888888888977889,real55,1774,10
906120.50138888888888977889,real14,1741,2
906120.50138888888888977889,real42,2301,2
906120.50138888888888977889,real50,1426,10
906120.50138888888888977889,real12,1647,3
906120.50138888888888977889,real11,4947,8
906120.50138888888888977889,real65,2795,1
906120.50138888888888977889,real95,2709,2
906120.50138888888888977889,real52,1711,4
906120.50138888888888977889,real78,4343,2
906120.50138888888888977889,real81,2080,10
906120.50138888888888977889,real76,13472,6
906120.50138888888888977889,real45,1598,3
906120.50138888888888977889,real29,1659,10
906120.50138888888888977889,real83,1511,3
906120.50138888888888977889,real51,1403,3
906120.50138888888888977889,real74,1872,10
906120.50138888888888977889,real1,1844,2
906120.50138888888888977889,real63,1383,3
906120.50138888888888977889,real41,1944,10
906120.50138888888888977889,real57,1488,3
906120.50138888888888977889,real70,1290,4
906120.50138888888888977889,real10,1260,5
906120.50138888888888977889,real28,1564,2
906120.50138888888888977889,real27,1244,4
906120.50138888888888977889,real84,2167,4
906120.50138888888888977889,real87,1462,10
906120.50138888888888977889,real2,1800,4
906120.50138888888888977889,real3,2774,1
906120.50138888888888977889,real21,1637,10
906120.50138888888888977889,real23,2777,7
906120.50138888888888977889,real96,1230,3
906120.50138888888888977889,real46,1690,10
906120.50138888888888977889,real47,1564,4
906120.50138888888888977889,real85,2955,5
906120.5604166666666678675309,real33,10132,7
906120.5604166666666678675309,real35,2711,9
906120.5604166666666678675309,real79,2656,4
906120.5604166666666678675309,real18,2796,7
906120.5604166666666678675309,real24,2861,9
906120.5604166666666678675309,real54,3168,7
906120.5604166666666678675309,real48,4135,7
906120.5604166666666678675309,real6,3296,9
906120.5604166666666678675309,real7,1920,9
906120.5604166666666678675309,real68,1801,9
906120.5604166666666678675309,real38,2982,8
906120.5604166666666678675309,real58,2732,8
906120.5604166666666678675309,real86,5222,7
906120.5604166666666678675309,real17,3141,8
906120.5604166666666678675309,real71,4077,9
906120.5604166666666678675309,real66,2152,9
906120.5604166666666678675309,real19,4569,10
906120.5604166666666678675309,real67,2161,9
906120.5604166666666678675309,real32,3023,9
906120.5604166666666678675309,real43,3389,9
906120.5604166666666678675309,real93,6044,10
906120.5604166666666678675309,real15,3394,4
906120.5604166666666678675309,real16,6528,6
906120.5604166666666678675309,real61,1881,10
906120.5604166666666678675309,real44,2617,10
906120.5604166666666678675309,real88,5021,5
906120.5604166666666678675309,real69,2108,10
906120.5604166666666678675309,real34,1605,10
906120.5604166666666678675309,real13,5174,7
906120.5604166666666678675309,real56,5886,10
906120.5604166666666678675309,real80,2642,10
906120.5604166666666678675309,real36,2374,5
906120.5604166666666678675309,real62,2247,10
906120.5604166666666678675309,real75,6970,8
906120.5604166666666678675309,real39,2619,9
906120.5604166666666678675309,real26,1801,9
906120.5604166666666678675309,real37,3222,10
906120.5604166666666678675309,real90,1491,10
906120.5604166666666678675309,real72,1613,10
906120.5604166666666678675309,real30,2202,10
906120.5604166666666678675309,real77,4144,6
906120.5604166666666678675309,real59,4177,4
906120.5604166666666678675309,real73,2056,10
906120.5604166666666678675309,real89,1883,10
906120.5604166666666678675309,real82,2242,5
906120.5604166666666678675309,real94,3111,8
906120.5604166666666678675309,real64,2192,10
906120.5604166666666678675309,real20,3375,5
906120.5604166666666678675309,real5,5998,6
906120.5604166666666678675309,real40,2310,4
906120.5604166666666678675309,real22,2135,9
906120.5604166666666678675309,real25,2336,4
906120.5604166666666678675309,real9,3848,4
906120.5604166666666678675309,real53,2453,2
906120.5604166666666678675309,real60,2600,4
906120.5604166666666678675309,real92,1638,10
906120.5604166666666678675309,real91,3587,8
906120.5604166666666678675309,real8,2722,2
906120.5604166666666678675309,real4,3219,10
906120.5604166666666678675309,real49,1903,10
906120.5604166666666678675309,real31,4951,5
906120.5604166666666678675309,real55,1984,10
906120.5604166666666678675309,real14,4222,5
906120.5604166666666678675309,real42,4716,5
906120.5604166666666678675309,real50,1398,10
906120.5604166666666678675309,real12,2348,10
906120.5604166666666678675309,real11,907,10
906120.5604166666666678675309,real65,3004,10
906120.5604166666666678675309,real95,2298,10
906120.5604166666666678675309,real52,3092,7
906120.5604166666666678675309,real78,5999,5
906120.5604166666666678675309,real81,1230,10
906120.5604166666666678675309,real76,4851,4
906120.5604166666666678675309,real45,5823,4
906120.5604166666666678675309,real29,2590,10
906120.5604166666666678675309,real83,3468,10
906120.5604166666666678675309,real51,5952,9
906120.5604166666666678675309,real74,6737,10
906120.5604166666666678675309,real1,3243,3
906120.5604166666666678675309,real63,4303,8
906120.5604166666666678675309,real41,5143,10
906120.5604166666666678675309,real57,4088,5
906120.5604166666666678675309,real70,2355,10
906120.5604166666666678675309,real10,3763,4
906120.5604166666666678675309,real28,3129,10
906120.5604166666666678675309,real27,1314,10
906120.5604166666666678675309,real84,3554,5
906120.5604166666666678675309,real87,1163,10
906120.5604166666666678675309,real2,5628,8
906120.5604166666666678675309,real3,5578,5
906120.5604166666666678675309,real21,1338,10
906120.5604166666666678675309,real23,4002,10
906120.5604166666666678675309,real96,2728,10
906120.5604166666666678675309,real46,2040,10
906120.5604166666666678675309,real47,1669,10
906120.5604166666666678675309,real85,3872,10
906120.573611111111111867508,real33,2319,6
906120.573611111111111867508,real35,4824,3
906120.573611111111111867508,real79,2789,7
906120.573611111111111867508,real18,2036,8
906120.573611111111111867508,real24,3127,9
906120.573611111111111867508,real54,3633,10
906120.573611111111111867508,real48,2174,10
906120.573611111111111867508,real6,1828,10
906120.573611111111111867508,real7,2235,9
906120.573611111111111867508,real68,3759,8
906120.573611111111111867508,real38,2183,10
906120.573611111111111867508,real58,1486,10
906120.573611111111111867508,real86,3029,2
906120.573611111111111867508,real17,2450,2
906120.573611111111111867508,real71,2294,10
906120.573611111111111867508,real66,1840,9
906120.573611111111111867508,real19,2329,10
906120.573611111111111867508,real67,1674,9
906120.573611111111111867508,real32,1460,7
906120.573611111111111867508,real43,2848,9
906120.573611111111111867508,real93,6003,2
906120.573611111111111867508,real15,2362,2
906120.573611111111111867508,real16,2849,2
906120.573611111111111867508,real61,2349,10
906120.573611111111111867508,real44,2583,6
906120.573611111111111867508,real88,1973,9
906120.573611111111111867508,real69,2252,10
906120.573611111111111867508,real34,1872,6
906120.573611111111111867508,real13,3116,4
906120.573611111111111867508,real56,2149,10
906120.573611111111111867508,real80,2221,5
906120.573611111111111867508,real36,1186,6
906120.573611111111111867508,real62,1435,4
906120.573611111111111867508,real75,1615,7
906120.573611111111111867508,real39,4700,9
906120.573611111111111867508,real26,1639,7
906120.573611111111111867508,real37,4329,7
906120.573611111111111867508,real90,1547,9
906120.573611111111111867508,real72,1370,10
906120.573611111111111867508,real30,2041,7
906120.573611111111111867508,real77,1492,10
906120.573611111111111867508,real59,1566,7
906120.573611111111111867508,real73,1477,9
906120.573611111111111867508,real89,1135,10
906120.573611111111111867508,real82,3062,9
906120.573611111111111867508,real94,2562,10
906120.573611111111111867508,real64,2545,8
906120.573611111111111867508,real20,2673,4
906120.573611111111111867508,real5,5472,1
906120.573611111111111867508,real40,1788,3
906120.573611111111111867508,real22,2642,9
906120.573611111111111867508,real25,1855,7
906120.573611111111111867508,real9,2441,9
906120.573611111111111867508,real53,2293,5
906120.573611111111111867508,real60,1750,6
906120.573611111111111867508,real92,3742,7
906120.573611111111111867508,real91,4490,2
906120.573611111111111867508,real8,3301,1
906120.573611111111111867508,real4,3622,10
906120.573611111111111867508,real49,1828,9
906120.573611111111111867508,real31,1578,8
906120.573611111111111867508,real55,4520,6
906120.573611111111111867508,real14,3170,4
906120.573611111111111867508,real42,2506,8
906120.573611111111111867508,real50,1498,10
906120.573611111111111867508,real12,1716,8
906120.573611111111111867508,real11,1373,4
906120.573611111111111867508,real65,1411,5
906120.573611111111111867508,real95,3218,8
906120.573611111111111867508,real52,3600,5
906120.573611111111111867508,real78,2094,6
906120.573611111111111867508,real81,3591,10
906120.573611111111111867508,real76,2226,8
906120.573611111111111867508,real45,2551,9
906120.573611111111111867508,real29,3151,10
906120.573611111111111867508,real83,2639,10
906120.573611111111111867508,real51,3104,7
906120.573611111111111867508,real74,2075,8
906120.573611111111111867508,real1,2238,6
906120.573611111111111867508,real63,2610,9
906120.573611111111111867508,real41,2201,10
906120.573611111111111867508,real57,2478,8
906120.573611111111111867508,real70,3040,4
906120.573611111111111867508,real10,3485,10
906120.573611111111111867508,real28,3091,7
906120.573611111111111867508,real27,2678,7
906120.573611111111111867508,real84,1760,5
906120.573611111111111867508,real87,2711,7
906120.573611111111111867508,real2,1934,6
906120.573611111111111867508,real3,4965,4
906120.573611111111111867508,real21,3981,4
906120.573611111111111867508,real23,3013,7
906120.573611111111111867508,real96,10578,3
906120.573611111111111867508,real46,2492,4
906120.573611111111111867508,real47,2494,2
906120.573611111111111867508,real85,2648,4
906120.6048611111111118675307,real33,9804,4
906120.6048611111111118675307,real35,5421,7
906120.6048611111111118675307,real79,4763,2
906120.6048611111111118675307,real18,3715,4
906120.6048611111111118675307,real24,11520,4
906120.6048611111111118675307,real54,4476,7
906120.6048611111111118675307,real48,9543,2
906120.6048611111111118675307,real6,15993,9
906120.6048611111111118675307,real7,11236,4
906120.6048611111111118675307,real68,4515,8
906120.6048611111111118675307,real38,5949,4
906120.6048611111111118675307,real58,5094,9
906120.6048611111111118675307,real86,4350,8
906120.6048611111111118675307,real17,3366,8
906120.6048611111111118675307,real71,8101,8
906120.6048611111111118675307,real66,2689,9
906120.6048611111111118675307,real19,2119,9
906120.6048611111111118675307,real67,8552,6
906120.6048611111111118675307,real32,3746,8
906120.6048611111111118675307,real43,5394,3
906120.6048611111111118675307,real93,4857,4
906120.6048611111111118675307,real15,5789,8
906120.6048611111111118675307,real16,9133,5
906120.6048611111111118675307,real61,6000,9
906120.6048611111111118675307,real44,4163,6
906120.6048611111111118675307,real88,5539,8
906120.6048611111111118675307,real69,2996,9
906120.6048611111111118675307,real34,4850,10
906120.6048611111111118675307,real13,5677,6
906120.6048611111111118675307,real56,5768,9
906120.6048611111111118675307,real80,5161,7
906120.6048611111111118675307,real36,3377,4
906120.6048611111111118675307,real62,4793,10
906120.6048611111111118675307,real75,4903,10
906120.6048611111111118675307,real39,8114,8
906120.6048611111111118675307,real26,9405,7
906120.6048611111111118675307,real37,3413,10
906120.6048611111111118675307,real90,3130,7
906120.6048611111111118675307,real72,4779,5
906120.6048611111111118675307,real30,3258,10
906120.6048611111111118675307,real77,4986,9
906120.6048611111111118675307,real59,5739,3
906120.6048611111111118675307,real73,2909,10
906120.6048611111111118675307,real89,3095,9
906120.6048611111111118675307,real82,5323,7
906120.6048611111111118675307,real94,5700,8
906120.6048611111111118675307,real64,5623,9
906120.6048611111111118675307,real20,8413,3
906120.6048611111111118675307,real5,2916,10
906120.6048611111111118675307,real40,9741,6
906120.6048611111111118675307,real22,7823,5
906120.6048611111111118675307,real25,8230,8
906120.6048611111111118675307,real9,8002,8
906120.6048611111111118675307,real53,3434,2
906120.6048611111111118675307,real60,2983,10
906120.6048611111111118675307,real92,5005,9
906120.6048611111111118675307,real91,3268,3
906120.6048611111111118675307,real8,4407,4
906120.6048611111111118675307,real4,2326,10
906120.6048611111111118675307,real49,3726,9
906120.6048611111111118675307,real31,7091,4
906120.6048611111111118675307,real55,2119,10
906120.6048611111111118675307,real14,3912,8
906120.6048611111111118675307,real42,7153,4
906120.6048611111111118675307,real50,2389,10
906120.6048611111111118675307,real12,7051,10
906120.6048611111111118675307,real11,4504,7
906120.6048611111111118675307,real65,4835,7
906120.6048611111111118675307,real95,5300,8
906120.6048611111111118675307,real52,8167,4
906120.6048611111111118675307,real78,8928,5
906120.6048611111111118675307,real81,5499,10
906120.6048611111111118675307,real76,11470,5
906120.6048611111111118675307,real45,5036,8
906120.6048611111111118675307,real29,2754,10
906120.6048611111111118675307,real83,4570,9
906120.6048611111111118675307,real51,4223,8
906120.6048611111111118675307,real74,6174,10
906120.6048611111111118675307,real1,3861,2
906120.6048611111111118675307,real63,2994,4
906120.6048611111111118675307,real41,2428,10
906120.6048611111111118675307,real57,4304,7
906120.6048611111111118675307,real70,5130,6
906120.6048611111111118675307,real10,5092,2
906120.6048611111111118675307,real28,3864,9
906120.6048611111111118675307,real27,5004,7
906120.6048611111111118675307,real84,5034,9
906120.6048611111111118675307,real87,2679,10
906120.6048611111111118675307,real2,5184,7
906120.6048611111111118675307,real3,3616,8
906120.6048611111111118675307,real21,2149,10
906120.6048611111111118675307,real23,4445,9
906120.6048611111111118675307,real96,5248,1
906120.6048611111111118675307,real46,2454,10
906120.6048611111111118675307,real47,2834,9
906120.6048611111111118675307,real85,3303,8
910120.3909722222222228,real33,4361,7
910120.3909722222222228,real35,4336,9
910120.3909722222222228,real79,4745,8
910120.3909722222222228,real18,3602,7
910120.3909722222222228,real24,6391,6
910120.3909722222222228,real54,6799,5
910120.3909722222222228,real48,3078,9
910120.3909722222222228,real6,11177,10
910120.3909722222222228,real7,6954,6
910120.3909722222222228,real68,4308,10
910120.3909722222222228,real38,9574,8
910120.3909722222222228,real58,4999,10
910120.3909722222222228,real86,5097,8
910120.3909722222222228,real17,7619,7
910120.3909722222222228,real71,3922,10
910120.3909722222222228,real66,3722,9
910120.3909722222222228,real19,2140,10
910120.3909722222222228,real67,4500,10
910120.3909722222222228,real32,4463,8
910120.3909722222222228,real43,4291,8
910120.3909722222222228,real93,8764,9
910120.3909722222222228,real15,5645,8
910120.3909722222222228,real16,5242,7
910120.3909722222222228,real61,5095,7
910120.3909722222222228,real44,3995,6
910120.3909722222222228,real88,4881,8
910120.3909722222222228,real69,6948,8
910120.3909722222222228,real34,2718,10
910120.3909722222222228,real13,4086,7
910120.3909722222222228,real56,8034,5
910120.3909722222222228,real80,1976,9
910120.3909722222222228,real36,5895,8
910120.3909722222222228,real62,3974,5
910120.3909722222222228,real75,5374,10
910120.3909722222222228,real39,2910,10
910120.3909722222222228,real26,4287,9
910120.3909722222222228,real37,2761,10
910120.3909722222222228,real90,6176,9
910120.3909722222222228,real72,5872,9
910120.3909722222222228,real30,4820,5
910120.3909722222222228,real77,6096,5
910120.3909722222222228,real59,4515,7
910120.3909722222222228,real73,3165,7
910120.3909722222222228,real89,4420,10
910120.3909722222222228,real82,4847,6
910120.3909722222222228,real94,3660,10
910120.3909722222222228,real64,5487,10
910120.3909722222222228,real20,5099,7
910120.3909722222222228,real5,5873,5
910120.3909722222222228,real40,4573,9
910120.3909722222222228,real22,4677,6
910120.3909722222222228,real25,4056,8
910120.3909722222222228,real9,4690,10
910120.3909722222222228,real53,4645,5
910120.3909722222222228,real60,12193,5
910120.3909722222222228,real92,3890,9
910120.3909722222222228,real91,4005,7
910120.3909722222222228,real8,3515,5
910120.3909722222222228,real4,3613,7
910120.3909722222222228,real49,3803,8
910120.3909722222222228,real31,3567,6
910120.3909722222222228,real55,5566,8
910120.3909722222222228,real14,3406,9
910120.3909722222222228,real42,2997,5
910120.3909722222222228,real50,3299,10
910120.3909722222222228,real12,3980,10
910120.3909722222222228,real11,5012,8
910120.3909722222222228,real65,3017,7
910120.3909722222222228,real95,3959,9
910120.3909722222222228,real52,2503,10
910120.3909722222222228,real78,5041,5
910120.3909722222222228,real81,4902,8
910120.3909722222222228,real76,4450,6
910120.3909722222222228,real45,7990,10
910120.3909722222222228,real29,2838,8
910120.3909722222222228,real83,5283,10
910120.3909722222222228,real51,4535,9
910120.3909722222222228,real74,2808,9
910120.3909722222222228,real1,4958,10
910120.3909722222222228,real63,4695,9
910120.3909722222222228,real41,6544,4
910120.3909722222222228,real57,6945,10
910120.3909722222222228,real70,6002,7
910120.3909722222222228,real10,3409,3
910120.3909722222222228,real28,3174,8
910120.3909722222222228,real27,2870,8
910120.3909722222222228,real84,6033,10
910120.3909722222222228,real87,5791,4
910120.3909722222222228,real2,7359,4
910120.3909722222222228,real3,5159,7
910120.3909722222222228,real21,2775,4
910120.3909722222222228,real23,2982,10
910120.3909722222222228,real96,6095,8
910120.3909722222222228,real46,11986,4
910120.3909722222222228,real47,1892,10
910120.3909722222222228,real85,5894,10
910120.49097222222222234543,real33,12688,4
910120.49097222222222234543,real35,4254,10
910120.49097222222222234543,real79,16586,1
910120.49097222222222234543,real18,12669,10
910120.49097222222222234543,real24,7445,10
910120.49097222222222234543,real54,5059,8
910120.49097222222222234543,real48,4663,8
910120.49097222222222234543,real6,5315,9
910120.49097222222222234543,real7,15202,9
910120.49097222222222234543,real68,5013,9
910120.49097222222222234543,real38,4051,9
910120.49097222222222234543,real58,8663,9
910120.49097222222222234543,real86,14964,10
910120.49097222222222234543,real17,3823,6
910120.49097222222222234543,real71,12557,6
910120.49097222222222234543,real66,4223,7
910120.49097222222222234543,real19,9175,5
910120.49097222222222234543,real67,15408,5
910120.49097222222222234543,real32,8321,5
910120.49097222222222234543,real43,24404,8
910120.49097222222222234543,real93,4211,7
910120.49097222222222234543,real15,11129,9
910120.49097222222222234543,real16,3876,7
910120.49097222222222234543,real61,7455,5
910120.49097222222222234543,real44,7418,5
910120.49097222222222234543,real88,9680,6
910120.49097222222222234543,real69,7973,6
910120.49097222222222234543,real34,4862,5
910120.49097222222222234543,real13,7439,8
910120.49097222222222234543,real56,5285,6
910120.49097222222222234543,real80,10592,6
910120.49097222222222234543,real36,6552,5
910120.49097222222222234543,real62,4436,8
910120.49097222222222234543,real75,3057,8
910120.49097222222222234543,real39,5805,6
910120.49097222222222234543,real26,3043,6
910120.49097222222222234543,real37,12558,9
910120.49097222222222234543,real90,3833,3
910120.49097222222222234543,real72,2446,6
910120.49097222222222234543,real30,55096,6
910120.49097222222222234543,real77,2615,6
910120.49097222222222234543,real59,47699,8
910120.49097222222222234543,real73,2580,6
910120.49097222222222234543,real89,3602,9
910120.49097222222222234543,real82,2476,10
910120.49097222222222234543,real94,3863,8
910120.49097222222222234543,real64,4346,10
910120.49097222222222234543,real20,3931,9
910120.49097222222222234543,real5,4031,7
910120.49097222222222234543,real40,5691,7
910120.49097222222222234543,real22,9871,2
910120.49097222222222234543,real25,8900,9
910120.49097222222222234543,real9,6294,3
910120.49097222222222234543,real53,6066,8
910120.49097222222222234543,real60,2478,6
910120.49097222222222234543,real92,8176,6
910120.49097222222222234543,real91,19420,3
910120.49097222222222234543,real8,3999,3
910120.49097222222222234543,real4,5685,9
910120.49097222222222234543,real49,33880,3
910120.49097222222222234543,real31,3787,9
910120.49097222222222234543,real55,2794,10
910120.49097222222222234543,real14,5207,2
910120.49097222222222234543,real42,33941,3
910120.49097222222222234543,real50,7505,10
910120.49097222222222234543,real12,17083,4
910120.49097222222222234543,real11,7868,10
910120.49097222222222234543,real65,6809,2
910120.49097222222222234543,real95,9775,10
910120.49097222222222234543,real52,1816,10
910120.49097222222222234543,real78,4365,5
910120.49097222222222234543,real81,1885,10
910120.49097222222222234543,real76,4285,8
910120.49097222222222234543,real45,24151,4
910120.49097222222222234543,real29,1759,10
910120.49097222222222234543,real83,4414,8
910120.49097222222222234543,real51,19909,10
910120.49097222222222234543,real74,1644,10
910120.49097222222222234543,real1,2911,8
910120.49097222222222234543,real63,1817,10
910120.49097222222222234543,real41,1863,10
910120.49097222222222234543,real57,3402,3
910120.49097222222222234543,real70,3704,10
910120.49097222222222234543,real10,24505,9
910120.49097222222222234543,real28,24650,4
910120.49097222222222234543,real27,2590,10
910120.49097222222222234543,real84,2068,8
910120.49097222222222234543,real87,1167,10
910120.49097222222222234543,real2,4292,9
910120.49097222222222234543,real3,2519,9
910120.49097222222222234543,real21,1632,10
910120.49097222222222234543,real23,2108,10
910120.49097222222222234543,real96,3932,10
910120.49097222222222234543,real46,2245,10
910120.49097222222222234543,real47,2793,9
910120.49097222222222234543,real85,4367,9
910120.53819444444444454,real33,4317,7
910120.53819444444444454,real35,4047,7
910120.53819444444444454,real79,7203,4
910120.53819444444444454,real18,6858,5
910120.53819444444444454,real24,5285,6
910120.53819444444444454,real54,3992,8
910120.53819444444444454,real48,5079,5
910120.53819444444444454,real6,6099,7
910120.53819444444444454,real7,4824,8
910120.53819444444444454,real68,5110,4
910120.53819444444444454,real38,4872,5
910120.53819444444444454,real58,3916,3
910120.53819444444444454,real86,7777,4
910120.53819444444444454,real17,4697,6
910120.53819444444444454,real71,6547,8
910120.53819444444444454,real66,3413,8
910120.53819444444444454,real19,5267,9
910120.53819444444444454,real67,4295,8
910120.53819444444444454,real32,5361,3
910120.53819444444444454,real43,5601,6
910120.53819444444444454,real93,7537,7
910120.53819444444444454,real15,6108,8
910120.53819444444444454,real16,5271,5
910120.53819444444444454,real61,5251,8
910120.53819444444444454,real44,6746,2
910120.53819444444444454,real88,5739,4
910120.53819444444444454,real69,5524,9
910120.53819444444444454,real34,5967,7
910120.53819444444444454,real13,4245,6
910120.53819444444444454,real56,2993,8
910120.53819444444444454,real80,3247,8
910120.53819444444444454,real36,3651,2
910120.53819444444444454,real62,3783,8
910120.53819444444444454,real75,5598,6
910120.53819444444444454,real39,4765,7
910120.53819444444444454,real26,5876,3
910120.53819444444444454,real37,6836,6
910120.53819444444444454,real90,4498,5
910120.53819444444444454,real72,4461,6
910120.53819444444444454,real30,3808,7
910120.53819444444444454,real77,3369,8
910120.53819444444444454,real59,3872,4
910120.53819444444444454,real73,2860,9
910120.53819444444444454,real89,4799,7
910120.53819444444444454,real82,7604,6
910120.53819444444444454,real94,3003,8
910120.53819444444444454,real64,3113,8
910120.53819444444444454,real20,3915,4
910120.53819444444444454,real5,12973,10
910120.53819444444444454,real40,7910,6
910120.53819444444444454,real22,3777,6
910120.53819444444444454,real25,3488,7
910120.53819444444444454,real9,4714,6
910120.53819444444444454,real53,11140,6
910120.53819444444444454,real60,4831,5
910120.53819444444444454,real92,2556,8
910120.53819444444444454,real91,5948,3
910120.53819444444444454,real8,4645,2
910120.53819444444444454,real4,2962,9
910120.53819444444444454,real49,3825,7
910120.53819444444444454,real31,7357,1
910120.53819444444444454,real55,3367,7
910120.53819444444444454,real14,4942,9
910120.53819444444444454,real42,5471,6
910120.53819444444444454,real50,2628,8
910120.53819444444444454,real12,2776,8
910120.53819444444444454,real11,2543,9
910120.53819444444444454,real65,3519,4
910120.53819444444444454,real95,2800,8
910120.53819444444444454,real52,3662,2
910120.53819444444444454,real78,5201,1
